ax,ay,az
0.138348,-0.167140,0.966972
0.140544,-0.162016,0.970876
0.143228,-0.159820,0.975512
0.146400,-0.156404,0.978928
0.148596,-0.157624,0.979172
0.149816,-0.161040,0.997960
0.155184,-0.162016,0.992836
0.159332,-0.166896,0.992836
0.162260,-0.169336,0.993080
0.160552,-0.174704,0.993568
0.157868,-0.169824,0.987468
0.162260,-0.174216,0.988444
0.161040,-0.174948,0.986248
0.158600,-0.173484,0.984784
0.157868,-0.175680,0.982344
0.158356,-0.180316,0.984540
0.158356,-0.176656,0.981612
0.156160,-0.177632,0.979660
0.154452,-0.180316,0.979904
0.152256,-0.185196,0.976732
0.149328,-0.171776,0.981124
0.145424,-0.179584,0.979904
0.138348,-0.177876,0.978684
0.136396,-0.175924,0.981124
0.137372,-0.174948,0.980392
0.133956,-0.174704,0.986736
0.132248,-0.175680,0.986248
0.131272,-0.173484,0.984052
0.131516,-0.170068,0.982588
0.133956,-0.169824,0.985760
0.136396,-0.173240,0.984052
0.138592,-0.178120,0.984784
0.139324,-0.184220,0.987956
0.136396,-0.186172,0.986004
0.139080,-0.187636,0.983808
0.139324,-0.186660,0.985028
0.136640,-0.191540,0.985516
0.135908,-0.192272,0.985516
0.137128,-0.196908,0.986004
0.137128,-0.197396,0.986004
0.134688,-0.200324,0.986736
0.132248,-0.200080,0.985760
0.129808,-0.199348,0.989664
0.131272,-0.199348,0.988932
0.134444,-0.194224,0.987712
0.134688,-0.192760,0.988200
0.135420,-0.190076,0.986248
0.138104,-0.190808,0.990884
0.144448,-0.191784,0.991860
0.145180,-0.193492,0.992592
0.146644,-0.195932,0.994544
0.144448,-0.198128,0.992836
0.144448,-0.195932,0.992348
0.142252,-0.196664,0.994056
0.144936,-0.196664,0.993080
0.145180,-0.197884,0.991616
0.148840,-0.197152,0.988688
0.149328,-0.201788,0.987712
0.150060,-0.202276,0.983808
0.150304,-0.203252,0.982832
0.149816,-0.204472,0.980148
0.149328,-0.205936,0.979660
0.147132,-0.206424,0.972584
0.141764,-0.207644,0.968924
0.142496,-0.207400,0.963312
0.146400,-0.208864,0.963800
0.150548,-0.210084,0.961604
0.153964,-0.209108,0.960872
0.157380,-0.213012,0.960872
0.158844,-0.211060,0.965020
0.155916,-0.212036,0.970876
0.151768,-0.212768,0.970876
0.148596,-0.213012,0.977220
0.146156,-0.224236,0.965996
0.139324,-0.193980,0.977464
0.139568,-0.203252,0.972828
0.138104,-0.204960,0.971852
0.134932,-0.193492,0.978684
0.124928,-0.195932,0.975024
0.127368,-0.192760,0.976000
0.128832,-0.188856,0.975268
0.130784,-0.185684,0.979660
0.133224,-0.184464,0.979660
0.135664,-0.185684,0.981856
0.137372,-0.189344,0.984296
0.134444,-0.189100,0.980636
0.130540,-0.194956,0.981612
0.127612,-0.199348,0.979416
0.129320,-0.204960,0.982832
0.134444,-0.206180,0.985028
0.136152,-0.206424,0.981368
0.132004,-0.200324,0.977708
0.132248,-0.195688,0.974048
0.131028,-0.191052,0.971120
0.130784,-0.183976,0.970876
0.132004,-0.181780,0.964776
0.131516,-0.172508,0.959408
0.133224,-0.168360,0.981124
0.127612,-0.164700,0.987712
0.132492,-0.167628,0.981612
0.142984,-0.168360,0.965752
0.137372,-0.147620,0.943304
0.135664,-0.153964,0.954040
0.143472,-0.155672,0.953552
0.140544,-0.144204,0.945500
0.129320,-0.143960,0.945500
0.126148,-0.158844,1.013576
0.124684,-0.177632,0.978440
0.127124,-0.181292,1.002108
0.120536,-0.168604,0.960872
0.132004,-0.176656,0.981368
0.162748,-0.165188,0.974780
0.186172,-0.163724,0.962092
0.189832,-0.158356,0.978928
0.184708,-0.155184,0.964288
0.176412,-0.154696,0.947940
0.163724,-0.157380,0.932568
0.156160,-0.156648,0.924516
0.162260,-0.140544,0.909632
0.169580,-0.125172,0.905484
0.182268,-0.110532,0.894260
0.196420,-0.102480,0.899872
0.216184,-0.099552,0.902312
0.230092,-0.104432,0.906704
0.230336,-0.115656,0.929640
0.221308,-0.123220,0.943304
0.205448,-0.140544,0.976000
0.196664,-0.148108,0.991860
0.194712,-0.166652,1.021140
0.205936,-0.187880,1.054568
0.197884,-0.195932,1.102148
0.196420,-0.207400,1.141676
0.168116,-0.217648,1.171932
0.186660,-0.230092,1.179252
0.201300,-0.220088,1.195600
0.185440,-0.207400,1.208532
0.184464,-0.252540,1.192184
0.211792,-0.250100,1.199992
0.237656,-0.227164,1.215608
0.235460,-0.237412,1.199748
0.222284,-0.247904,1.200236
0.201056,-0.250832,1.203652
0.187148,-0.248880,1.203164
0.176412,-0.257420,1.224148
0.161528,-0.272304,1.227320
0.148840,-0.287432,1.236592
0.136640,-0.279624,1.240740
0.130784,-0.284016,1.243424
0.126392,-0.285968,1.242204
0.129808,-0.289872,1.244644
0.139080,-0.270352,1.241960
0.134200,-0.260592,1.231224
0.129808,-0.231556,1.211460
0.127368,-0.203740,1.199504
0.122488,-0.184464,1.182424
0.108824,-0.166164,1.154364
0.093208,-0.138104,1.109712
0.101748,-0.147620,1.144360
0.114192,-0.129564,1.216340
0.026840,0.203496,1.327360
0.013908,0.151524,1.390800
0.093208,-0.242048,1.001864
0.138836,-0.314516,0.959164
0.071004,-0.184464,1.079212
0.072468,-0.115656,1.045784
0.067832,-0.123952,0.998448
0.064904,-0.156160,0.923052
0.078080,-0.150304,0.886940
0.092476,-0.099796,0.911096
0.090280,-0.022692,0.911096
0.088084,0.063196,0.919148
0.122244,0.098820,0.880352
0.131272,0.077836,0.855708
0.116876,0.075152,0.831552
0.110288,0.127124,0.818376
0.101504,0.173240,0.833504
0.105408,0.145424,0.790072
0.135664,0.003416,0.597312
0.199348,-0.065392,0.433588
0.262300,-0.050996,0.395036
0.296948,-0.015128,0.433832
0.285480,0.033916,0.476044
0.233996,0.059292,0.525088
0.172264,0.012932,0.401868
-0.022204,0.129808,0.257176
-0.065392,0.162748,0.261324
-0.062708,0.137372,0.287920
-0.056364,0.109068,0.307196
-0.061000,0.145180,0.298412
-0.063928,0.213988,0.277184
-0.067588,0.254248,0.194468
-0.091256,0.278160,0.098576
-0.148352,0.267424,0.038064
-0.205448,0.265716,0.015860
-0.261568,0.262056,0.076860
-0.295728,0.244732,0.032696
-0.309880,0.212280,-0.020252
-0.101016,0.032940,-0.091256
0.242536,-0.229360,-0.157868
0.231068,-0.171532,-0.165188
0.208620,-0.108580,-0.244976
0.173240,-0.094184,-0.323788
0.081740,-0.125172,-0.376248
0.003660,-0.205692,-0.331352
0.010980,-0.375272,-0.214476
-0.019520,-0.521672,-0.210328
-0.063928,-0.581452,-0.234240
-0.111020,-0.561932,-0.273036
-0.176168,-0.597312,-0.402600
-0.230824,-0.764696,-0.605852
-0.184464,-0.465308,-0.112728
-0.185684,-0.137128,0.136396
-0.295728,0.582428,0.530212
-0.436516,1.613572,1.382016
-0.443348,1.723860,2.162328
-0.198128,1.064816,2.330200
0.098332,0.604876,2.234308
0.509228,0.139324,2.234796
0.874496,-0.072468,2.307264
1.093120,-0.004636,2.397788
1.190232,0.124928,2.387296
1.228540,0.185928,2.436096
1.243424,0.164456,2.497096
1.261236,0.209352,2.578592
1.260016,0.281576,2.685220
1.185352,0.464088,3.138816
1.325652,0.509228,3.502132
1.362740,0.526064,3.524824
1.448140,0.656848,3.255936
1.403488,0.551928,3.002664
1.384456,0.593164,3.097580
0.944768,0.400892,2.889448
0.430172,0.716628,2.809416
-0.094184,0.825696,2.470012
-0.254004,0.926468,2.563220
0.007808,0.822524,2.821128
-0.248392,1.167052,2.686196
-0.460428,1.424472,2.408524
-0.447496,1.540860,2.257732
-0.153232,1.436916,2.135000
0.017812,1.284172,1.936872
0.162748,1.064816,1.745088
0.180316,0.910852,1.595760
0.136152,0.821060,1.443260
0.039284,0.810324,1.381284
0.019032,0.666364,1.127280
0.122488,0.778360,1.149728
0.154208,0.659532,1.000156
0.231800,0.595116,0.794952
0.262300,0.573156,0.621468
0.240096,0.550952,0.258396
-0.006344,0.370880,0.079544
-0.152744,0.300120,0.015616
-0.260348,0.190808,-0.019520
-0.333060,0.077348,-0.093696
-0.419192,-0.001220,-0.055388
-0.514840,-0.154940,-0.090280
-0.599508,-0.255956,-0.167872
-0.685396,-0.403332,-0.247172
-0.771284,-0.588284,-0.267668
-0.871324,-0.750300,-0.319884
-1.060424,-0.892796,-0.250832
-1.159488,-0.966484,-0.167872
-1.322724,-0.893040,-0.054900
-1.547692,-0.900116,-0.040748
-1.870504,-0.928664,-0.257420
-2.038132,-0.548268,-0.370880
-1.941264,-0.671244,-0.235460
-1.781444,-1.107028,-0.266936
-1.733132,-1.154364,-0.376004
-1.696776,-0.836676,-0.409920
-1.579168,-0.783240,-0.416508
-1.439600,-0.711992,-0.353556
-1.383724,-0.593896,-0.230580
-1.373964,-0.427732,-0.115412
-1.340536,-0.295972,-0.008540
-1.283196,-0.192760,0.124928
-1.186816,-0.065392,0.291580
-1.054812,0.115412,0.441884
-0.912560,0.297924,0.604632
-0.652944,0.725168,0.864736
-0.546316,0.913292,0.948916
-0.446032,1.091168,1.032120
-0.351848,1.283928,1.098488
-0.232044,1.491328,1.173152
-0.138348,1.718736,1.263188
-0.054900,1.979084,1.338584
-0.004392,2.294576,1.375672
0.083936,2.632028,1.413736
0.173728,2.914824,1.441796
0.309880,3.117100,1.511092
0.463600,3.282532,1.639436
0.655628,3.413316,1.799988
0.904264,3.481392,1.982500
1.126060,3.518724,2.126460
1.254404,3.515064,2.254316
1.408856,3.455040,2.343132
1.475712,3.385012,2.410476
1.512068,3.300100,2.412184
1.436428,3.241052,2.343132
1.370548,3.204940,2.293112
1.345172,3.134424,2.192340
1.238544,3.035116,2.082784
1.155340,2.682292,1.889048
0.989420,2.478552,1.807796
0.870104,2.272616,1.726788
0.723460,2.081076,1.629676
0.589992,1.901492,1.554768
0.450668,1.707512,1.458876
0.294508,1.525732,1.347368
0.147864,1.358592,1.222440
0.032940,1.221220,1.123376
-0.066612,1.129232,1.046760
-0.067100,1.014064,0.983076
-0.068564,0.929640,0.962336
-0.106872,0.847656,0.956968
-0.174704,0.753228,0.930616
-0.233508,0.613660,0.875228
-0.261324,0.516060,0.871568
-0.275720,0.508252,0.864980
-0.289872,0.515084,0.819596
-0.314272,0.492392,0.747128
-0.347944,0.392596,0.736148
-0.350872,0.345504,0.574376
-0.303048,0.259372,0.337940
-0.292312,-0.046116,0.724192
-0.612928,-0.193736,0.508008
-0.654164,-0.164456,0.300120
-0.637572,-0.186416,0.240584
-0.634888,-0.240096,0.188368
-0.673196,-0.304024,0.099064
-0.723704,-0.370148,0.024888
-0.772992,-0.435052,-0.039772
-0.792756,-0.475068,-0.023668
-0.836920,-0.488000,-0.036112
-0.874496,-0.472384,-0.081740
-0.864492,-0.453840,-0.042212
-0.830820,-0.375516,0.019032
-0.780556,-0.307196,0.084180
-0.711992,-0.262300,0.149572
-0.638548,-0.231068,0.194468
-0.560956,-0.195688,0.232288
-0.472140,-0.157380,0.306952
-0.389180,-0.077836,0.425048
-0.299144,0.020008,0.493124
-0.212280,0.131028,0.533628
-0.142252,0.234728,0.619516
-0.064904,0.303048,0.712968
-0.094916,0.467504,0.800808
-0.369416,0.898408,0.442128
-0.048800,0.898408,0.579256
-0.086864,0.986980,0.823500
-0.150304,0.845948,0.708088
-0.076128,0.807884,0.680272
0.004636,0.823744,0.698816
0.049288,0.819108,0.689788
0.083204,0.813496,0.652700
0.117608,0.798124,0.632692
0.128588,0.755424,0.574864
0.077348,0.635132,0.538996
0.152988,0.606340,0.462624
0.260592,0.589748,0.385764
0.390888,0.523136,0.389668
0.544364,0.462136,0.505568
0.762256,0.513620,0.981124
1.016260,0.586820,1.507432
1.251720,0.652944,1.897588
1.391044,0.713456,1.874164
1.428620,0.655384,1.527684
1.388604,0.720532,1.215120
1.277096,0.828136,1.005280
1.013332,1.042856,0.892064
0.915732,1.072868,0.925736
0.862540,1.084092,0.990884
0.839116,1.056764,1.044564
0.823988,1.015528,1.054324
0.799344,0.962580,1.028704
0.772748,0.903044,0.986004
0.724436,0.823500,0.924028
0.665632,0.732976,0.856684
0.597312,0.648308,0.805932
0.530944,0.571448,0.770552
0.478728,0.492392,0.724680
0.452132,0.421632,0.636108
0.399916,0.294996,0.373808
0.290604,0.101992,-0.002440
0.109800,-0.098820,-0.244488
-0.018056,-0.233264,-0.278404
-0.102968,-0.433832,-0.156648
-0.147132,-0.442616,0.116388
-0.183244,-0.028060,0.554124
-0.161284,0.348920,0.668804
-0.098332,0.571448,0.671732
0.015616,0.626348,0.633424
0.140788,0.619028,0.642208
0.247172,0.590236,0.718824
0.289872,0.482876,0.812276
0.285968,0.307196,0.945012
0.253516,0.223260,1.081408
0.206180,0.318176,1.105564
0.153232,0.444812,1.094584
0.098820,0.505080,1.143628
0.101748,0.455792,1.148020
0.130540,0.393328,1.165588
0.181292,0.381860,1.184132
0.236924,0.396744,1.200480
0.291824,0.406260,1.224880
0.322568,0.430904,1.235128
0.323300,0.479216,1.184132
0.325984,0.543388,1.073112
0.341600,0.603656,0.958432
0.358924,0.609512,0.834724
0.362340,0.537288,0.734196
0.334524,0.501176,0.702720
0.303292,0.526796,0.728096
0.283528,0.560712,0.754448
0.270840,0.596336,0.778848
0.257908,0.611220,0.864980
0.234728,0.539240,0.807640
0.212036,0.506056,0.789828
0.217648,0.489220,0.703452
0.233508,0.469456,0.680272
0.243024,0.411628,0.687836
0.245220,0.373564,0.691740
0.239852,0.389668,0.713456
0.221308,0.403332,0.771040
0.209352,0.398208,0.786168
0.199104,0.412360,0.749080
0.198372,0.422120,0.714432
0.231800,0.433344,0.696376
0.276940,0.447740,0.736392
0.308660,0.465796,0.778116
0.326228,0.469212,0.817644
0.326716,0.465064,0.862296
0.318420,0.453596,0.910120
0.299144,0.435296,0.953552
0.274744,0.422120,0.972828
0.258396,0.418704,0.970876
0.234484,0.424804,0.967216
0.210328,0.426512,0.960384
0.194712,0.412116,0.951844
0.185928,0.376980,0.947696
0.181292,0.338916,0.944036
0.165920,0.314272,0.927444
0.157380,0.307440,0.889624
0.133468,0.340868,0.839848
0.131028,0.365024,0.816180
0.134444,0.381128,0.825940
0.139324,0.424804,0.889868
0.143228,0.480192,0.911828
0.153476,0.519964,0.907192
0.183244,0.530700,0.917928
0.235704,0.539484,0.928176
0.262544,0.548756,0.958432
0.304512,0.544120,0.953308
0.355264,0.520696,0.986248
0.397476,0.509960,1.028216
0.422608,0.478728,1.060180
0.462380,0.432856,1.093608
0.480192,0.399184,1.132892
0.481412,0.354288,1.164612
0.485316,0.298168,1.179496
0.466040,0.257664,1.194868
0.430172,0.241316,1.193648
0.395280,0.238632,1.161928
0.347944,0.264984,1.133868
0.299144,0.286944,1.102148
0.245464,0.302560,1.064816
0.196664,0.318176,1.020164
0.155916,0.323300,0.983076
0.114192,0.310612,0.950624
0.082472,0.288652,0.923052
0.053192,0.270596,0.901336
0.032940,0.243512,0.881084
0.021472,0.236192,0.866688
0.023180,0.256688,0.851316
0.048800,0.290604,0.788852
0.062220,0.278404,0.790072
0.080520,0.259128,0.822036
0.096136,0.241804,0.843508
0.120292,0.247660,0.839360
0.142252,0.272060,0.815936
0.157380,0.306220,0.794220
0.166896,0.325984,0.757376
0.178364,0.332816,0.712236
0.198128,0.332328,0.672220
0.224480,0.328180,0.644404
0.252296,0.319884,0.652944
0.281088,0.306464,0.677588
0.301096,0.292068,0.705892
0.318664,0.269864,0.726388
0.342088,0.233020,0.740052
0.360876,0.190564,0.747128
0.374052,0.125660,0.765184
0.377712,0.073932,0.802028
0.359412,0.047580,0.807396
0.331596,0.042700,0.800564
0.314760,0.047092,0.786900
0.297680,0.052460,0.774700
0.275964,0.023180,0.583404
0.351848,-0.218868,0.390888
0.407480,-0.086864,0.432612
0.434564,-0.021716,0.535824
0.440664,-0.012200,0.620736
0.440420,0.015616,0.730780
0.448472,0.006344,0.812276
0.460428,-0.013908,0.914024
0.461404,-0.032452,1.015528
0.440420,-0.052948,1.076772
0.394792,-0.057096,1.088728
0.354288,-0.080764,1.045540
0.323544,-0.118096,0.992348
0.302560,-0.151524,0.954772
0.288652,-0.115900,1.068720
0.300608,-0.199836,1.084092
0.300120,-0.231556,1.094096
0.297192,-0.242780,1.114104
0.291092,-0.278404,1.107760
0.283284,-0.297924,1.077260
0.271328,-0.324764,0.969656
0.255712,-0.394548,0.746152
0.263764,-0.495808,0.693936
0.210084,-0.297436,0.548024
0.135176,0.022936,0.460428
0.134200,0.131272,0.604632
0.216428,0.055388,0.889624
0.296216,0.000488,1.091412
0.331840,-0.005368,1.110932
0.336964,-0.007076,1.052860
0.329888,-0.021960,0.982832
0.311588,-0.050996,0.840824
0.282064,-0.142252,0.858392
0.284748,-0.172508,0.881328
0.288164,-0.177144,0.907192
0.272304,-0.165920,0.908656
0.250832,-0.141520,0.869128
0.223016,-0.125416,0.852780
0.220332,-0.118340,0.879620
0.243756,-0.112728,0.911584
0.277672,-0.099064,0.943548
0.303780,-0.094916,0.971364
0.326472,-0.087840,0.987468
0.343308,-0.068808,0.982100
0.365756,-0.039040,0.948184
0.389180,0.040260,0.940620
0.409676,0.098576,0.997960
0.431148,0.134200,1.109956
0.458476,0.102724,1.179740
0.461404,-0.077104,1.277584
0.455548,-0.128832,1.287588
0.453596,-0.098820,1.270996
0.440420,0.001220,1.238300
0.413336,0.112728,1.200968
0.375516,0.189100,1.175592
0.347700,0.209596,1.158024
0.335256,0.182512,1.137040
0.338672,0.133468,1.126060
0.335500,0.078324,1.114592
0.317688,0.046116,1.094340
0.278648,0.044652,1.048224
0.224236,0.056852,0.988932
0.172264,0.058804,0.916220
0.134932,0.047580,0.852536
0.115656,0.023912,0.799588
0.113948,-0.002684,0.755180
0.117608,-0.045140,0.681248
0.119316,-0.033916,0.619272
0.136884,-0.012444,0.502884
0.162504,0.121756,0.599508
0.171532,-0.117364,0.573156
0.191052,-0.051728,0.603656
0.206424,-0.020740,0.588284
0.213500,0.004636,0.573888
0.212036,0.048800,0.572180
0.206912,0.083692,0.571936
0.196908,0.105652,0.564128
0.199592,0.109068,0.550952
0.218380,0.084912,0.529480
0.255224,0.029280,0.520696
0.286944,0.023668,0.533628
0.298412,0.082472,0.541680
0.288164,0.152012,0.549244
0.264740,0.204228,0.550708
0.238144,0.226676,0.552172
0.215940,0.229848,0.551196
0.206180,0.265228,0.533140
0.203496,0.343552,0.523136
0.207156,0.413824,0.555344
0.210084,0.462136,0.613416
0.222772,0.513132,0.672220
0.238144,0.582672,0.699792
0.128588,0.328668,0.818620
0.021228,0.153964,0.905240
-0.053192,0.141276,0.862052
-0.084180,0.216428,0.728340
-0.088328,0.285480,0.613660
-0.085644,0.344040,0.572912
-0.076128,0.381860,0.594384
-0.067344,0.413580,0.666120
-0.058316,0.447496,0.711504
-0.048800,0.488000,0.705160
-0.018788,0.488244,0.667340
0.031964,0.458232,0.639768
0.102968,0.408700,0.636596
0.173972,0.370636,0.638060
0.231556,0.356484,0.642452
0.265960,0.363560,0.642940
0.276208,0.381128,0.640012
0.268400,0.402356,0.641964
0.254980,0.422364,0.647820
0.240096,0.437736,0.652700
0.247416,0.492636,0.635620
0.259616,0.502884,0.611952
0.265228,0.500200,0.588528
0.266936,0.477508,0.559736
0.268156,0.436028,0.515084
0.269376,0.392596,0.459940
0.268156,0.357704,0.396256
0.261568,0.325496,0.344040
0.253516,0.288164,0.308416
0.239120,0.259860,0.279624
0.205448,0.263276,0.281820
0.148840,0.284260,0.262544
0.086376,0.320128,0.251320
0.030256,0.374540,0.293532
-0.024400,0.469700,0.361852
-0.091988,0.645868,0.433832
-0.165920,0.861076,0.518744
-0.222040,1.054324,0.598044
-0.236680,1.205116,0.641964
-0.229116,1.340536,0.667340
-0.215208,1.492792,0.694180
-0.171044,1.658712,0.720776
0.046116,1.957368,0.750056
0.182512,2.110356,0.803736
0.326716,2.308240,0.877180
0.471408,2.540040,0.941352
0.638060,2.763544,1.011380
0.817400,2.942396,1.082628
0.989664,3.076108,1.139968
1.154364,3.183712,1.208288
1.319796,3.201768,1.279292
1.470832,3.185908,1.372500
1.603568,3.192008,1.450336
1.706536,3.207624,1.497184
1.765828,3.214212,1.507920
1.768512,3.176148,1.477664
1.742648,3.080744,1.417396
1.683844,2.956548,1.315404
1.585512,2.840404,1.186816
1.420568,2.732068,1.022604
1.219756,2.580056,0.869860
1.042124,2.353624,0.716384
0.892552,2.104988,0.564860
0.747860,1.837564,0.428952
0.610488,1.529392,0.316956
0.479216,1.245620,0.211060
0.357216,1.044808,0.151768
0.175436,0.642452,0.090524
-0.190076,0.249368,0.114192
-0.377712,0.102236,0.161040
-0.567544,-0.065148,0.243512
-0.761280,-0.235216,0.389180
-0.951112,-0.358680,0.575108
-1.122156,-0.436516,0.766648
-1.241228,-0.549244,0.955016
-1.331508,-0.696132,1.094096
-1.443748,-0.822280,1.171688
-1.552572,-0.927932,1.206580
-1.720932,-0.997228,1.206092
-1.963468,-1.106052,1.040416
-2.420724,-1.069452,0.905240
-2.582496,-1.001376,0.723948
-2.674240,-0.900604,0.537044
-2.701812,-0.781288,0.314760
-2.717184,-0.751032,0.050752
-2.640324,-0.621224,-0.142496
-2.504172,-0.569984,-0.263520
-2.269444,-0.564616,-0.332816
-2.002996,-0.551196,-0.326228
-1.719712,-0.531188,-0.276208
-1.488888,-0.510204,-0.231312
-1.220488,-0.376492,-0.054656
-1.155828,-0.212524,0.066124
-1.133136,-0.009028,0.173728
-1.124352,0.194224,0.245464
-1.112640,0.408944,0.274988
-1.069940,0.612928,0.243512
-1.024068,0.811544,0.198860
-0.982100,1.008452,0.137372
-0.936716,1.205848,0.068076
-0.899384,1.454972,0.021228
-0.882548,1.774124,-0.026108
-0.841068,2.116456,-0.125416
-0.721020,2.450248,-0.284260
-0.308172,3.208600,-0.315004
-0.094184,3.597780,-0.364536
0.118340,3.919616,-0.448960
0.371612,4.128724,-0.538508
0.657824,4.244136,-0.573156
0.967704,4.298060,-0.613416
1.287588,4.299036,-0.700036
1.595516,4.272440,-0.839604
1.831464,4.245356,-1.012600
1.941752,4.162884,-1.147532
1.966884,4.052596,-1.216340
1.988600,3.957924,-1.135820
1.953952,3.887652,-0.971120
1.835856,3.796152,-0.820328
1.672132,3.732956,-0.589016
1.312476,3.768824,-0.492636
1.111176,3.769800,-0.467260
0.932568,3.697820,-0.526796
0.774456,3.591192,-0.569740
0.663924,3.419660,-0.559980
0.578768,3.212504,-0.523624
0.459940,3.074644,-0.397232
0.283772,2.975824,-0.249368
0.207400,2.670824,-0.248880
0.126880,2.487824,-0.141276
-0.009760,2.368264,-0.079544
-0.218380,2.229672,-0.017080
-0.484828,2.044720,0.094672
-0.800808,1.738744,0.266692
-1.107028,1.367132,0.451400
-1.353712,0.955992,0.549976
-1.738256,0.233752,0.462136
-1.946144,-0.166652,0.401136
-2.165988,-0.584380,0.428220
-2.355576,-0.988688,0.570960
-2.470256,-1.389092,0.809592
-2.516616,-1.700680,1.081652
-2.569808,-1.840492,1.360788
-2.683268,-1.912960,1.558428
-2.821860,-1.977620,1.691408
-2.933368,-2.043256,1.769244
-2.991440,-2.053748,1.737768
-3.201768,-1.976888,1.527928
-3.304736,-1.867332,1.284660
-3.381352,-1.696044,0.979172
-3.395992,-1.492792,0.809104
-3.363540,-1.228296,0.596824
-2.987048,-1.052128,0.559248
-2.954352,-0.665876,0.407968
-2.997296,-0.455304,0.390156
-2.811368,-0.212768,0.446276
-2.455616,0.063196,0.579012
-2.159156,0.259860,0.662460
-1.975180,0.476044,0.657580
-1.839516,0.693204,0.649528
-1.709464,1.088484,0.554368
-1.436428,1.223416,0.446764
-1.299300,1.342976,0.345504
-1.153144,1.429596,0.246684
-0.985028,1.497916,0.169336
-0.799100,1.595028,0.093452
-0.643916,1.793888,0.004148
-0.524844,2.055212,-0.130540
-0.403576,2.359724,-0.351848
-0.254492,2.734752,-0.608536
-0.056364,3.174196,-0.824476
0.201300,3.585580,-1.021384
0.494100,3.909612,-1.101904
0.784460,4.194604,-1.118496
1.064816,4.424940,-1.216096
1.625772,4.436408,-1.316380
1.691652,4.268292,-1.429596
1.708000,4.000868,-1.411540
1.700680,3.711240,-1.336144
1.690676,3.526044,-1.229028
1.705072,3.449428,-1.101660
1.729228,3.446256,-0.983564
1.732400,3.452600,-0.889868
1.657492,3.499692,-0.807884
1.494988,3.490908,-0.734928
1.289784,3.443572,-0.662216
1.052616,3.395504,-0.600728
0.827648,3.318400,-0.523624
0.614636,3.212748,-0.416996
0.424560,3.100508,-0.286700
0.248636,3.007788,-0.175192
0.071980,2.950692,-0.079300
-0.096380,2.888960,0.073200
-0.370392,2.642764,0.200080
-0.459452,2.465132,0.315980
-0.523380,2.330200,0.419436
-0.610732,2.073512,0.511424
-0.646356,1.926868,0.647332
-0.660264,1.736548,0.761768
-0.670512,1.568676,0.860100
-0.725168,1.441552,0.939644
-0.828624,1.371036,0.955260
-0.958920,1.277584,0.953064
-1.082872,1.073844,0.959408
-1.228296,0.746152,0.950624
-1.396900,0.393816,0.890844
-1.583560,0.090036,0.705648
-1.712880,-0.133712,0.105408
-1.371768,-0.424072,-0.135908
-1.593076,-0.423584,-0.489220
-1.867088,-0.320616,-0.556320
-2.173308,-0.257664,-0.593652
-2.437316,-0.162504,-0.509716
-2.551508,-0.148840,-0.497516
-2.409500,-0.241316,-0.508008
-2.085468,-0.369172,-0.418216
-1.738012,-0.464088,-0.025376
-1.340536,-0.588040,0.095160
-1.295396,-0.603656,0.258884
-1.271728,-0.640988,0.386252
-1.239032,-0.655384,0.471652
-1.203408,-0.634400,0.542412
-1.174128,-0.591944,0.584624
-1.143872,-0.526552,0.618540
-1.116056,-0.479460,0.625616
-1.085068,-0.438468,0.626104
-1.062620,-0.382592,0.626836
-1.046272,-0.305000,0.620980
-1.009184,-0.243024,0.568520
-0.987224,-0.254980,0.514108
-0.955748,-0.291824,0.469456
-0.927932,-0.330376,0.432856
-0.911828,-0.366976,0.391376
-0.909388,-0.395036,0.336232
-0.917440,-0.397720,0.276940
-0.920124,-0.399672,0.204228
-0.916220,-0.417484,0.116388
-0.912560,-0.435052,0.022692
-0.923540,-0.415776,-0.071248
-0.934032,-0.331108,-0.209352
-0.923540,-0.322324,-0.225944
-0.914756,-0.252296,-0.222040
-0.906948,-0.163724,-0.206180
-0.896212,-0.075640,-0.169336
-0.881572,0.005612,-0.119560
-0.861076,0.092720,-0.037576
-0.833504,0.184708,0.060268
-0.806420,0.268888,0.154452
-0.773236,0.339404,0.236924
-0.736392,0.405284,0.318908
-0.694668,0.520696,0.496540
-0.618296,0.534360,0.596824
-0.586820,0.552172,0.684176
-0.560712,0.569008,0.767624
-0.548268,0.585112,0.840092
-0.547780,0.606096,0.906948
-0.556564,0.626836,0.955748
-0.569984,0.660020,1.000644
-0.585356,0.703208,1.039440
-0.605120,0.760792,1.065548
-0.622932,0.830088,1.083116
-0.652212,0.893772,1.099464
-0.691008,0.958188,1.111908
-0.731756,1.027240,1.126060
-0.770308,1.100196,1.140212
-0.800320,1.176080,1.147288
-0.822036,1.252696,1.148508
-0.849852,1.395436,1.091656
-0.743468,1.450092,1.041392
-0.730780,1.597956,1.063596
-0.747372,1.742892,1.004304
-0.765428,1.872700,0.929640
-0.778848,1.983720,0.865956
-0.749568,2.060580,0.807152
-0.691496,2.132072,0.749324
-0.619272,2.203320,0.674416
-0.520940,2.313364,0.550220
-0.425292,2.412184,0.416752
-0.368684,2.520520,0.279380
-0.337940,2.646180,0.150060
-0.291824,2.769400,0.027328
-0.167384,2.805512,-0.089304
-0.169580,2.783064,-0.131028
-0.002684,2.724748,-0.113704
0.118340,2.648132,-0.068320
0.215940,2.535648,-0.018056
0.286944,2.397056,0.053680
0.335256,2.259684,0.151036
0.369416,2.124508,0.314272
0.395280,2.070828,0.464820
0.463600,2.199416,0.504592
0.303536,2.228452,0.593408
0.137372,2.278960,0.664900
0.022692,2.352648,0.654652
-0.057340,2.404864,0.608048
-0.141276,2.411208,0.636352
-0.203740,2.426336,0.563396
-0.258152,2.426092,0.408944
-0.304268,2.399496,0.228384
-0.388204,2.208200,-0.123220
-0.414800,2.124752,-0.319152
-0.445544,2.058872,-0.503372
-0.462624,2.004704,-0.703208
-0.464820,1.936140,-0.855220
-0.447740,1.851472,-0.936472
-0.421144,1.777052,-0.951844
-0.393816,1.710684,-0.946476
-0.378444,1.662372,-0.921832
-0.374052,1.621136,-0.879620
-0.374540,1.595516,-0.837408
-0.384788,1.589416,-0.802028
-0.405284,1.588684,-0.775188
-0.473604,1.617232,-0.768844
-0.504836,1.628700,-0.806664
-0.530212,1.652368,-0.865468
-0.557052,1.660664,-0.934520
-0.588284,1.647976,-0.990152
-0.616588,1.625040,-1.052860
-0.634888,1.591612,-1.128256
-0.640988,1.545252,-1.176324
-0.632204,1.470588,-1.224148
-0.628544,1.414712,-1.128744
-0.584136,1.327604,-1.147776
-0.606828,1.276364,-1.137772
-0.655140,1.215852,-1.080188
-0.705648,1.141432,-0.977952
-0.722240,1.088972,-0.903532
-0.732732,1.047980,-0.857416
-0.742248,1.044320,-0.810812
-0.770552,1.040904,-0.789828
-0.821304,1.012356,-0.808860
-0.869372,0.988688,-0.809836
-0.881328,0.976976,-0.795684
-0.868152,0.977464,-0.739076
-0.841312,0.976000,-0.719068
-0.831064,0.982344,-0.682712
-0.817156,0.982588,-0.650992
-0.796172,0.985516,-0.637328
-0.786900,0.978684,-0.649772
-0.786412,0.956968,-0.680028
-0.788852,0.935740,-0.697352
-0.783728,0.925004,-0.697596
-0.772260,0.943060,-0.666364
-0.762012,0.991128,-0.634644
-0.756156,1.058960,-0.608048
-0.740296,1.136796,-0.581696
-0.677588,1.273192,-0.477508
-0.644892,1.318088,-0.421144
-0.615612,1.350052,-0.358680
-0.580964,1.377136,-0.283528
-0.546072,1.401780,-0.202764
-0.513376,1.421544,-0.122488
-0.483120,1.435452,-0.051728
-0.443104,1.455216,0.010736
-0.400648,1.475224,0.064904
-0.346480,1.500600,0.110288
-0.296948,1.519144,0.147620
-0.305488,1.509384,0.175680
-0.328424,1.475956,0.246440
-0.347212,1.449848,0.264008
-0.354288,1.417396,0.257420
-0.371856,1.370304,0.233996
-0.366976,1.328580,0.210572
-0.372588,1.299788,0.197884
-0.390888,1.281976,0.196664
-0.395768,1.269044,0.186416
-0.396256,1.270508,0.182268
-0.407724,1.277340,0.173728
-0.420168,1.292468,0.160308
-0.475312,1.298324,0.142496
-0.536800,1.307352,0.121024
-0.608292,1.308084,0.100040
-0.680028,1.267092,0.094428
-0.729072,1.198528,0.099796
-0.724924,1.121912,0.118584
-0.688324,1.060912,0.126148
-0.653920,1.026020,0.138592
-0.650016,1.001376,0.132980
-0.671488,1.016748,0.120292
-0.710772,1.051152,0.129564
-0.750544,1.028460,0.184220
-0.784948,0.980880,0.221796
-0.812276,0.937692,0.255468
-0.827892,0.894992,0.281088
-0.833992,0.843752,0.299632
-0.835700,0.789828,0.321836
-0.833992,0.747372,0.342820
-0.839604,0.718092,0.355264
-0.845948,0.690520,0.366488
-0.849852,0.657092,0.386740
-0.856928,0.631960,0.401868
-0.862052,0.605364,0.418460
-0.859612,0.595116,0.445788
-0.860344,0.599508,0.477996
-0.865956,0.606584,0.502152
-0.865712,0.606096,0.522648
-0.862296,0.598532,0.548024
-0.858880,0.577304,0.574620
-0.848632,0.531920,0.585600
-0.831308,0.474580,0.603656
-0.810568,0.432124,0.635376
-0.795440,0.403576,0.663192
-0.787632,0.390644,0.676368
-0.777872,0.378444,0.684176
-0.766404,0.376980,0.684420
-0.759572,0.380396,0.690032
-0.758840,0.375272,0.687348
-0.755424,0.367708,0.670268
-0.741028,0.377956,0.660020
-0.712968,0.361120,0.669292
-0.689056,0.363316,0.723216
-0.679540,0.366000,0.695888
-0.696620,0.382348,0.649772
-0.703696,0.388448,0.621468
-0.704916,0.394304,0.610976
-0.705160,0.403088,0.604388
-0.708332,0.401868,0.603412
-0.714432,0.392352,0.612684
-0.720288,0.380152,0.629764
-0.726144,0.363560,0.652212
-0.730536,0.348676,0.669292
-0.738344,0.335256,0.686128
-0.744444,0.321348,0.696620
-0.755180,0.308904,0.701500
-0.756156,0.297924,0.698816
-0.748348,0.282796,0.691740
-0.736636,0.282796,0.671000
-0.704428,0.305488,0.667096
-0.688080,0.322080,0.668072
-0.671732,0.342576,0.679784
-0.659288,0.364048,0.696620
-0.645868,0.383324,0.725412
-0.641964,0.404796,0.772016
-0.644648,0.433344,0.834236
-0.652944,0.455548,0.906460
-0.665144,0.471164,0.970632
-0.677832,0.475312,1.019676
-0.694668,0.481412,1.063840
-0.721264,0.498736,1.072868
-0.747860,0.524844,1.082384
-0.756888,0.518256,1.081164
-0.753228,0.501176,1.086776
-0.731024,0.461404,1.081164
-0.711992,0.444812,1.081896
-0.698572,0.430660,1.080920
-0.690764,0.419680,1.092388
-0.686372,0.428952,1.117276
-0.683444,0.477508,1.144360
-0.683444,0.565348,1.189988
-0.684664,0.672952,1.261968
-0.683688,0.784460,1.354444
-0.689300,0.887672,1.450336
-0.705648,0.997228,1.533784
-0.720532,1.079456,1.597468
-0.716140,1.115568,1.644072
-0.680760,1.091412,1.682380
-0.637816,1.040660,1.730692
-0.617076,0.949160,1.776076
-0.655872,0.916220,1.730692
-0.703208,0.889136,1.657736
-0.742492,0.869372,1.578924
-0.760792,0.851804,1.524268
-0.764696,0.826672,1.473516
-0.755180,0.791780,1.424472
-0.744444,0.744200,1.384212
-0.737612,0.697108,1.354200
-0.739564,0.663192,1.319308
-0.754448,0.645868,1.296372
-0.778360,0.658800,1.262700
-0.808860,0.653920,1.240496
-0.837408,0.650748,1.197064
-0.861320,0.653676,1.161684
-0.881328,0.657336,1.127768
-0.894748,0.650260,1.068964
-0.893772,0.636352,1.035536
-0.873276,0.629276,1.001620
-0.847656,0.630252,0.970144
-0.825452,0.638304,0.952576
-0.809104,0.652456,0.939644
-0.797148,0.664656,0.930128
-0.787144,0.669536,0.930128
-0.765428,0.658068,0.940620
-0.732976,0.634156,0.945744
-0.696864,0.611220,0.940864
-0.667096,0.595360,0.931104
-0.637572,0.586820,0.928420
-0.613904,0.572668,0.928176
-0.596092,0.549976,0.929884
-0.587064,0.513376,0.923052
-0.589748,0.406748,0.882792
-0.625616,0.362828,0.812520
-0.654164,0.324520,0.698572
-0.676368,0.286456,0.572180
-0.685884,0.253760,0.479704
-0.696376,0.232776,0.438468
-0.694424,0.219112,0.428220
-0.678808,0.194468,0.458476
-0.670756,0.181536,0.496540
-0.675148,0.180560,0.529480
-0.679052,0.190076,0.551928
-0.679052,0.205692,0.570228
-0.668560,0.229604,0.583160
-0.645380,0.254980,0.605608
-0.621224,0.282796,0.628544
-0.594140,0.306708,0.662460
-0.568032,0.328180,0.731756
-0.525576,0.321836,0.752252
-0.506544,0.303536,0.769332
-0.486780,0.274012,0.777140
-0.463600,0.248880,0.777628
-0.444080,0.231068,0.787876
-0.429684,0.218136,0.793244
-0.416020,0.211548,0.790560
-0.396012,0.210084,0.772748
-0.379176,0.221796,0.762012
-0.366732,0.244488,0.763476
-0.360632,0.275476,0.775920
-0.356484,0.313296,0.786168
-0.340380,0.347944,0.816668
-0.234728,0.396744,0.844484
-0.243756,0.492636,0.918416
-0.228628,0.536312,0.941352
-0.228140,0.603412,0.972584
-0.208620,0.664900,0.987224
-0.193248,0.732000,0.999424
-0.157380,0.798124,1.057496
-0.133468,0.844972,1.118740
0.241804,1.615036,1.717516
0.448228,2.382660,3.453576
0.255468,1.676524,2.014220
0.120780,0.684176,0.958676
0.029036,0.305000,0.630252
0.006588,0.373320,0.681248
0.000000,0.481168,0.694180
-0.008784,0.481168,0.652212
-0.003172,0.429440,0.578524
-0.004392,0.377712,0.465796
-0.065148,0.308416,0.166408
-0.141764,0.317932,-0.055632
0.048556,0.635132,1.304668
0.108824,0.707112,0.860344
0.089548,0.705892,0.930372
0.009516,0.612928,1.098732
-0.075152,0.553148,1.141676
-0.159576,0.584624,0.995764
-0.186172,0.602436,0.954772
-0.170800,0.752984,1.033828
-0.112972,0.885232,1.237812
-0.060512,0.962580,1.345904
-0.044652,0.987712,1.435940
-0.063440,1.016504,1.508164
-0.087108,1.025288,1.545740
-0.108336,1.012844,1.533784
-0.122488,0.997228,1.499624
-0.116144,0.959164,1.438136
-0.112728,0.926224,1.331508
-0.111508,0.884012,1.123376
-0.077592,0.734684,1.052372
-0.056608,0.663680,0.978684
-0.047580,0.627080,0.899872
-0.025376,0.587064,0.878888
-0.025132,0.547292,0.797148
-0.038796,0.522404,0.692960
-0.049044,0.519476,0.642696
-0.059048,0.544120,0.623664
-0.074664,0.617564,0.609024
-0.097600,0.711504,0.600972
-0.120780,0.821548,0.588284
-0.147132,0.952088,0.574620
-0.167384,1.111908,0.550464
-0.164212,1.255136,0.604144
-0.120292,1.360788,0.698816
-0.010004,1.500844,0.823988
-0.005368,1.748260,0.878888
-0.022936,1.835368,0.928420
-0.021472,1.892464,0.953552
-0.009760,1.927844,0.965264
-0.043676,1.915888,1.005524
-0.068564,1.892220,1.039440
-0.093940,1.853912,1.042124
-0.126148,1.831952,1.057008
-0.154940,1.811944,1.046760
-0.187880,1.791936,1.021872
-0.235948,1.751920,1.000156
-0.290116,1.713368,0.960384
-0.341844,1.678232,0.901580
-0.393328,1.645292,0.842044
-0.447496,1.631384,0.794220
-0.499712,1.621380,0.689300
-0.589016,1.595028,0.680760
-0.613172,1.557452,0.666852
-0.631228,1.503040,0.667584
-0.652456,1.449116,0.671488
-0.675636,1.394704,0.665388
-0.709796,1.346880,0.655628
-0.754448,1.300032,0.648308
-0.791048,1.270508,0.640988
-0.815936,1.250500,0.628544
-0.835212,1.238544,0.619028
-0.845216,1.245132,0.604632
-0.869128,1.248792,0.608536
-0.896700,1.256356,0.612440
-0.975024,1.301496,0.616588
-1.013820,1.312476,0.624640
-1.045784,1.314184,0.626348
-1.092876,1.288808,0.638792
-1.138992,1.268800,0.660996
-1.160952,1.269532,0.681980
-1.189012,1.273680,0.700524
-1.247816,1.264652,0.724192
-1.303204,1.252452,0.753228
-1.355908,1.232688,0.787876
-1.433256,1.181448,0.832528
-1.479128,1.135088,0.874252
-1.522316,1.076772,0.935984
-1.560868,1.040172,0.986736
-1.563308,1.027484,1.014552
-1.538664,1.021140,1.118496
-1.455704,1.048468,1.134356
-1.429596,1.059692,1.158512
-1.412516,1.048468,1.161440
-1.408124,1.017724,1.164856
-1.402024,0.987468,1.162660
-1.389580,0.952332,1.135576
-1.371280,0.904264,1.089948
-1.353468,0.838384,1.039928
-1.331264,0.770552,0.987224
-1.313696,0.710040,0.924760
-1.301252,0.664900,0.856684
-1.279536,0.628300,0.787144
-1.249524,0.583892,0.721020
-1.218780,0.542168,0.675636
-1.129720,0.490196,0.590480
-1.077016,0.464332,0.559492
-1.030900,0.440664,0.541436
-0.995032,0.422608,0.520940
-0.959896,0.401136,0.492636
-0.927200,0.375516,0.470188
-0.898164,0.351604,0.449692
-0.863516,0.332328,0.424804
-0.812276,0.320372,0.390400
-0.779336,0.296948,0.365024
-0.776652,0.254736,0.350140
-0.792512,0.212768,0.365512
-0.803980,0.162260,0.382104
-0.805932,0.098576,0.395036
-0.805932,0.063440,0.408456
-0.793488,0.035868,0.413336
-0.786412,0.006832,0.416020
-0.776896,-0.025376,0.433100
-0.775432,-0.050264,0.449448
-0.777628,-0.077836,0.467504
-0.789096,-0.101748,0.495564
-0.803980,-0.122244,0.524112
-0.801296,-0.121024,0.551684
-0.813252,-0.124928,0.583892
-0.830088,-0.132248,0.619028
-0.855952,-0.142008,0.724680
-0.928908,-0.127856,0.730048
-0.957700,-0.138104,0.752740
-0.983564,-0.146400,0.783240
-0.998448,-0.137860,0.831308
-1.013332,-0.133468,0.864736
-1.038708,-0.123464,0.886940
-1.068232,-0.113948,0.923540
-1.093364,-0.110288,0.978440
-1.110932,-0.111508,1.036024
-1.128988,-0.129076,1.101172
-1.145824,-0.161528,1.137040
-1.156560,-0.207400,1.154608
-1.165832,-0.247172,1.139724
-1.190720,-0.274744,1.108004
-1.212924,-0.309148,1.068476
-1.213656,-0.332328,1.022116
-1.214388,-0.344040,1.006500
-1.225124,-0.350872,0.979172
-1.248060,-0.348920,0.962824
-1.273680,-0.301584,0.967948
-1.301008,-0.220576,0.993080
-1.313940,-0.098332,1.014064
-1.330532,0.038308,1.040904
-1.338340,0.164944,1.078236
-1.318820,0.250832,1.094584
-1.274900,0.307928,1.092876
-1.226100,0.366244,1.104100
-1.145336,0.543876,1.117520
-1.104832,0.632692,1.139236
-1.062376,0.720044,1.165344
-1.015040,0.800320,1.168272
-0.959164,0.862052,1.145580
-0.896944,0.892552,1.115080
-0.842288,0.910120,1.090924
-0.804712,0.937692,1.065060
-0.789096,0.976244,1.024800
-0.783240,1.015772,0.997960
-0.788364,1.070916,0.965020
-0.796172,1.151924,0.939156
-0.800564,1.240252,0.902312
-0.779824,1.355908,0.841312
-0.771528,1.434720,0.803492
-0.770796,1.539640,0.757620
-0.777628,1.646756,0.700768
-0.787632,1.759972,0.614148
-0.806420,1.891000,0.513132
-0.816668,2.049112,0.376248
-0.816180,2.236016,0.231800
-0.839604,2.415844,0.031964
-0.858392,2.509052,-0.205448
-0.904264,2.530280,-0.562664
-0.849608,2.517592,-0.930372
-0.762012,2.422188,-1.281976
-0.611464,2.355820,-1.521096
-0.329644,2.339472,-1.471320
0.080276,2.121580,-1.188768
0.160308,1.982012,-0.795440
0.126392,1.809504,-0.496540
0.047336,1.766316,-0.452376
-0.108824,1.694336,-0.385764
-0.237412,1.615524,-0.277184
-0.340380,1.643096,-0.193248
-0.425048,1.754848,-0.155184
-0.503860,1.917108,-0.153720
-0.611464,2.076684,-0.205692
-0.747860,2.179652,-0.345016
-0.993568,2.200636,-0.395768
-1.077504,2.150128,-0.437980
-1.121424,2.083028,-0.476776
-1.139724,2.016904,-0.510448
-1.147532,1.989576,-0.481656
-1.160220,1.982744,-0.469212
-1.145580,1.952000,-0.482388
-1.087264,1.893196,-0.488732
-1.000644,1.835612,-0.482388
-0.910608,1.784616,-0.485072
-0.833504,1.669936,-0.499712
-0.717848,1.603324,-0.481412
-0.669780,1.547204,-0.453108
-0.626104,1.480104,-0.429928
-0.583648,1.408124,-0.401624
-0.540460,1.337852,-0.364048
-0.494100,1.267092,-0.321348
-0.456280,1.205116,-0.287432
-0.429928,1.163148,-0.253516
-0.414800,1.125084,-0.205936
-0.414068,1.094096,-0.147132
-0.437004,1.031144,-0.016348
-0.457012,1.001132,0.042944
-0.499712,0.980392,0.096136
-0.535092,0.954772,0.113216
-0.458232,0.943304,0.181536
-0.357216,0.917928,0.084180
-0.332816,0.859612,0.198860
-0.451156,0.813984,0.172020
-0.606584,0.795928,0.195444
-0.843508,0.758840,0.137860
-0.968680,0.795684,0.206424
-0.866200,0.885232,0.205936
-0.749568,0.869860,0.298412
-0.608048,0.761768,0.486780
-0.493856,0.674172,0.551684
-0.426024,0.673196,0.735172
-0.267668,0.777872,0.844972
-0.200568,0.788852,0.854488
-0.120780,0.841068,0.891332
-0.014640,0.819596,1.034072
0.009760,0.700280,0.793732
0.145912,0.838872,1.134356
0.216672,0.807884,1.119472
0.208620,0.810080,0.899872
0.228140,0.923540,0.861808
0.259860,0.942084,0.902800
0.358680,1.003328,1.080432
0.382836,0.935496,0.933544
0.418216,0.944036,0.886208
0.460916,0.936960,0.856684
0.518744,0.947940,0.868640
0.604876,1.041148,0.957212
0.690520,1.084824,0.965752
0.751520,1.094584,0.931592
0.796172,1.127768,0.950624
0.840824,1.119716,1.006012
0.855952,1.037000,0.977464
0.879132,1.004304,1.008208
0.888648,0.965996,0.958920
0.898408,0.917928,0.956968
0.910364,0.915732,0.932568
0.926956,0.927200,0.895236
0.933300,0.947940,0.831064
0.939888,0.969168,0.801052
0.940620,0.962092,0.805444
0.923784,0.944036,0.801296
0.897188,0.928908,0.771772
0.866444,0.907192,0.734928
0.837164,0.892064,0.709308
0.810324,0.891332,0.694424
0.802516,0.899628,0.689788
0.804468,0.899872,0.671976
0.821792,0.888892,0.635864
0.845948,0.874008,0.599996
0.870348,0.861564,0.566568
0.887672,0.857172,0.550464
0.895724,0.867420,0.558760
0.915488,0.871812,0.556320
0.957944,0.854488,0.533872
1.000644,0.832040,0.505324
1.038708,0.810080,0.483852
1.068720,0.787876,0.464820
1.090436,0.762744,0.470920
1.091656,0.723704,0.504348
1.077016,0.663680,0.535580
1.059204,0.635620,0.642696
1.015772,0.578036,0.668560
1.010160,0.540460,0.670512
1.001376,0.492636,0.673196
0.982588,0.440176,0.683688
0.940864,0.397232,0.711992
0.890112,0.353068,0.736636
0.826916,0.335988,0.762500
0.766648,0.334524,0.775676
0.727120,0.363072,0.756156
0.726632,0.402600,0.701012
0.743224,0.424316,0.631228
0.778116,0.399916,0.579500
0.808372,0.373808,0.542412
0.841068,0.348676,0.472628
0.856440,0.322812,0.405284
0.842776,0.293776,0.352336
0.815448,0.263520,0.326472
0.792268,0.225944,0.310856
0.779824,0.179584,0.308172
0.774944,0.137860,0.326716
0.770308,0.130052,0.352824
0.752984,0.094916,0.382836
0.728340,0.077348,0.400404
0.693692,0.073932,0.406016
0.662948,0.092964,0.400160
0.645380,0.137616,0.396256
0.637572,0.157136,0.400160
0.636840,0.168604,0.408700
0.638548,0.175924,0.433344
0.636596,0.203008,0.534604
0.636840,0.209352,0.582184
0.619272,0.174948,0.507520
0.578036,0.137616,0.251076
0.506788,0.146400,0.256932
0.498248,0.131028,0.227896
0.498248,0.107116,0.207644
0.504348,0.093452,0.195932
0.514840,0.066368,0.193736
0.512644,0.043188,0.195200
0.504104,0.030012,0.183244
0.500688,0.024156,0.169092
0.497760,0.002928,0.148352
0.493368,-0.013908,0.125172
0.499712,-0.027816,0.096380
0.513864,-0.032940,0.087596
0.532652,-0.043676,0.090280
0.551928,-0.055388,0.085156
0.564860,-0.070516,0.068320
0.573156,-0.088572,0.059780
0.570472,-0.100772,0.033672
0.567056,-0.101504,0.017324
0.558272,-0.100040,0.009516
0.552416,-0.096868,0.024156
0.553148,-0.092476,0.039528
0.549488,-0.085156,0.066368
0.548756,-0.069052,0.073688
0.559004,-0.055388,0.076128
0.574864,-0.043920,0.072712
0.601460,-0.035624,0.079056
0.645624,-0.032696,0.083204
0.702720,-0.040016,0.083692
0.754936,-0.054168,0.054412
0.800076,-0.099552,-0.001952
0.826428,-0.149572,-0.029524
0.818864,-0.198616,-0.042212
0.790804,-0.240828,-0.056852
0.765184,-0.272548,-0.071004
0.736636,-0.290116,-0.075152
0.709308,-0.304024,-0.101504
0.666120,-0.323788,-0.108092
0.656116,-0.322568,-0.113704
0.653432,-0.315492,-0.122244
0.659044,-0.305976,-0.137616
0.665388,-0.298656,-0.151036
0.672708,-0.294020,-0.161284
0.677344,-0.279380,-0.173972
0.686860,-0.261080,-0.193492
0.701744,-0.239364,-0.207400
0.719800,-0.237412,-0.213744
0.741272,-0.249368,-0.224724
0.754936,-0.284016,-0.250344
0.748104,-0.296460,-0.256200
0.736392,-0.316712,-0.258884
0.721508,-0.333548,-0.261812
0.706380,-0.343308,-0.259128
0.699304,-0.348432,-0.261568
0.694180,-0.345748,-0.262300
0.690764,-0.342332,-0.270596
0.688080,-0.335988,-0.284992
0.687104,-0.334524,-0.306952
0.683688,-0.345260,-0.332572
0.673928,-0.355508,-0.388936
0.656848,-0.372344,-0.419192
0.649040,-0.382592,-0.451156
0.643672,-0.392352,-0.483852
0.644648,-0.402844,-0.520208
0.651968,-0.412116,-0.555100
0.658800,-0.423096,-0.569496
0.661972,-0.424804,-0.573400
0.663680,-0.416264,-0.573644
0.671976,-0.402844,-0.568520
0.676856,-0.397964,-0.559248
0.679784,-0.398696,-0.537776
0.678076,-0.401868,-0.446520
0.663436,-0.396012,-0.442616
0.648552,-0.386984,-0.419924
0.632936,-0.380884,-0.410164
0.622932,-0.378932,-0.409188
0.614392,-0.374052,-0.415532
0.607804,-0.367952,-0.424560
0.610488,-0.363560,-0.439444
0.617564,-0.362828,-0.461404
0.624884,-0.359656,-0.477508
0.631472,-0.354288,-0.494588
0.638792,-0.350628,-0.508008
0.653188,-0.349896,-0.548268
0.688080,-0.373808,-0.571204
0.697596,-0.382348,-0.582184
0.701744,-0.386496,-0.587796
0.705648,-0.393572,-0.601704
0.711016,-0.403088,-0.620248
0.717848,-0.407236,-0.628056
0.720776,-0.407724,-0.629032
0.726388,-0.408456,-0.625372
0.728340,-0.405528,-0.612196
0.725168,-0.395768,-0.591212
0.723216,-0.372344,-0.551196
0.725656,-0.370392,-0.536312
0.724680,-0.367220,-0.515328
0.717360,-0.363804,-0.503128
0.710528,-0.349896,-0.495320
0.702964,-0.338916,-0.491660
0.696620,-0.336720,-0.483608
0.685152,-0.326716,-0.484828
0.671000,-0.304512,-0.495564
0.655628,-0.281332,-0.508984
0.647332,-0.265716,-0.520940
0.643916,-0.258640,-0.535092
0.641964,-0.260104,-0.549732
0.645380,-0.261812,-0.556564
0.660508,-0.274012,-0.560956
0.675392,-0.286212,-0.556808
0.685152,-0.296704,-0.568764
0.687348,-0.307440,-0.573888
0.691984,-0.322324,-0.578280
0.696376,-0.335500,-0.593164
0.704428,-0.341600,-0.605364
0.714676,-0.344284,-0.622200
0.731024,-0.352580,-0.648552
0.749324,-0.359900,-0.682224
0.754936,-0.356484,-0.701256
0.746640,-0.347456,-0.713944
0.725900,-0.330132,-0.717848
0.721020,-0.322324,-0.711016
0.711260,-0.311344,-0.691740
0.700524,-0.299388,-0.670512
0.694912,-0.287920,-0.652456
0.690764,-0.279136,-0.637084
0.687348,-0.271084,-0.622932
0.681736,-0.262056,-0.611220
0.675392,-0.259128,-0.604876
0.668316,-0.255224,-0.603168
0.657092,-0.254980,-0.603412
0.647576,-0.254736,-0.598532
0.631960,-0.261324,-0.592920
0.621712,-0.264496,-0.591700
0.614392,-0.264740,-0.586332
0.606340,-0.271084,-0.584624
0.597800,-0.274500,-0.581208
0.590724,-0.270596,-0.591944
0.589748,-0.265472,-0.596824
0.599264,-0.266692,-0.593652
0.614880,-0.286944,-0.609756
0.632692,-0.308416,-0.638304
0.642208,-0.320860,-0.671976
0.648064,-0.338184,-0.689544
0.651236,-0.346236,-0.707600
0.651968,-0.344528,-0.718336
0.656116,-0.331840,-0.737368
0.656848,-0.318664,-0.746396
0.656848,-0.309392,-0.744444
0.648796,-0.302072,-0.728340
0.638304,-0.293288,-0.710528
0.628056,-0.284992,-0.689300
0.620736,-0.279136,-0.670512
0.618052,-0.282796,-0.650992
0.610732,-0.291092,-0.569984
0.586332,-0.302316,-0.590480
0.571936,-0.300364,-0.573400
0.559004,-0.299144,-0.564860
0.550220,-0.300120,-0.566324
0.544364,-0.304024,-0.576816
0.539240,-0.308904,-0.595604
0.532652,-0.320128,-0.624884
0.531188,-0.330132,-0.651724
0.529724,-0.343308,-0.687104
0.532896,-0.351116,-0.721508
0.540216,-0.388204,-0.797392
0.553636,-0.403088,-0.827648
0.551928,-0.421388,-0.882548
0.541436,-0.438468,-0.915244
0.531432,-0.435052,-0.934520
0.517768,-0.424804,-0.978196
0.513376,-0.419192,-1.011136
0.515572,-0.416752,-1.044320
0.517524,-0.403332,-1.044076
0.522892,-0.387716,-1.022116
0.530700,-0.382348,-0.979416
0.538264,-0.382592,-0.921588
0.542168,-0.388448,-0.869860
0.542656,-0.395768,-0.798368
0.522404,-0.409188,-0.788364
0.508984,-0.413824,-0.793732
0.495320,-0.414556,-0.815204
0.485804,-0.416508,-0.845216
0.476776,-0.417728,-0.888160
0.467992,-0.415288,-0.922564
0.458476,-0.415532,-0.951356
0.454084,-0.420412,-0.967948
0.449448,-0.430904,-0.978196
0.441884,-0.431392,-0.984784
0.433832,-0.425780,-0.994300
0.413824,-0.411628,-0.998936
0.395036,-0.397476,-0.937936
0.369904,-0.382836,-0.983564
0.361364,-0.377468,-0.961604
0.351360,-0.373564,-0.937448
0.344528,-0.375516,-0.923052
0.338428,-0.372832,-0.908168
0.333304,-0.367220,-0.891332
0.329644,-0.350140,-0.868884
0.322568,-0.334280,-0.849608
0.317444,-0.321348,-0.842776
0.312808,-0.312808,-0.856440
0.312564,-0.315004,-0.885232
0.311344,-0.321592,-0.938424
0.295728,-0.341356,-0.951844
0.283528,-0.348188,-0.963312
0.269376,-0.351604,-0.970876
0.255224,-0.353312,-0.970632
0.240340,-0.347212,-0.961848
0.228872,-0.339160,-0.940132
0.220820,-0.326716,-0.905240
0.221796,-0.325984,-0.865712
0.227652,-0.329156,-0.820084
0.229604,-0.325984,-0.765916
0.223992,-0.318420,-0.663436
0.210572,-0.296704,-0.625616
0.202276,-0.288652,-0.600484
0.193736,-0.287676,-0.595116
0.183488,-0.287676,-0.597800
0.172752,-0.281576,-0.607560
0.162260,-0.275476,-0.630252
0.157136,-0.273280,-0.660752
0.152256,-0.275476,-0.692960
0.150792,-0.274988,-0.731512
0.145668,-0.281576,-0.768844
0.145424,-0.292312,-0.804468
0.141032,-0.300120,-0.829600
0.128344,-0.313784,-0.830332
0.116144,-0.322080,-0.810324
0.099552,-0.324276,-0.773724
0.088816,-0.315980,-0.738344
0.079544,-0.301828,-0.700280
0.068076,-0.279136,-0.657824
0.060268,-0.256688,-0.615368
0.054412,-0.227164,-0.583404
0.054900,-0.188368,-0.558028
0.055144,-0.144692,-0.547048
0.060756,-0.116388,-0.551440
0.069296,-0.105652,-0.598776
0.080520,-0.101748,-0.640744
0.081252,-0.108824,-0.674904
0.080764,-0.112972,-0.698328
0.080032,-0.116388,-0.705648
0.080764,-0.126636,-0.688324
0.077836,-0.134688,-0.657824
0.075884,-0.142496,-0.613172
0.072224,-0.150304,-0.571204
0.065148,-0.155916,-0.527284
0.055144,-0.150304,-0.497272
0.043920,-0.133468,-0.451644
0.029768,-0.116632,-0.337940
0.011224,-0.080520,-0.302072
-0.006344,-0.041968,-0.288896
-0.042700,-0.012932,-0.285480
-0.075884,-0.001708,-0.276452
-0.109068,0.007320,-0.248392
-0.130296,0.022692,-0.218868
-0.142740,0.043188,-0.195444
-0.144204,0.076616,-0.170800
-0.144692,0.117364,-0.137616
-0.145424,0.150792,-0.109556
-0.148596,0.169092,-0.097356
-0.152744,0.182756,-0.094184
-0.183244,0.185684,-0.077592
-0.212524,0.184464,-0.059048
-0.242292,0.173972,-0.027328
-0.269376,0.156160,-0.021716
-0.284016,0.135908,-0.039040
-0.291092,0.131272,-0.045384
-0.295728,0.147132,-0.042212
-0.305732,0.183976,-0.021716
-0.318664,0.230336,0.018056
-0.333060,0.278648,0.051484
-0.346480,0.326716,0.059780
-0.359900,0.370636,0.037820
-0.380396,0.472384,0.001708
-0.444080,0.520940,0.013664
-0.481168,0.601460,0.041724
-0.508252,0.683444,0.090036
-0.531188,0.768844,0.148352
-0.554368,0.845704,0.207888
-0.572180,0.872788,0.282552
-0.576328,0.963800,0.331352
-0.584624,0.994544,0.381616
-0.588040,1.012112,0.417972
-0.577548,1.016748,0.447252
-0.559248,1.016260,0.482144
-0.534848,1.016504,0.512400
-0.507032,1.029924,0.523136
-0.477508,1.065548,0.507276
-0.451400,1.109468,0.483120
-0.440908,1.135088,0.440908
-0.451888,1.142896,0.310124
-0.526308,1.132648,0.246196
-0.587796,1.134356,0.212036
-0.655140,1.142896,0.191540
-0.722972,1.157536,0.182268
-0.791536,1.179008,0.194712
-0.852048,1.208776,0.216672
-0.904752,1.223172,0.237656
-0.944280,1.210972,0.256200
-0.963312,1.165832,0.296948
-0.964044,1.098732,0.358192
-0.966484,1.045296,0.430172
-0.990152,1.032608,0.520208
-1.030168,1.035780,0.626348
-1.094096,1.060668,0.713212
-1.177300,1.108004,0.770796
-1.270752,1.177544,0.804468
-1.367132,1.252940,0.884500
-1.587464,1.504016,0.943060
-1.705804,1.666764,1.005524
-1.792668,1.814140,1.079944
-1.794376,1.801452,1.149972
-1.731424,1.744600,1.168516
-1.657004,1.694580,1.167540
-1.628944,1.653100,1.121912
-1.665300,1.651392,1.066768
-1.740940,1.678232,1.056032
-1.781200,1.752164,1.085556
-1.754604,1.824388,1.053592
-1.695312,1.893928,1.049932
-1.661884,1.975668,1.103856
-1.679208,2.083760,1.326628
-1.777784,2.267736,1.431060
-1.783640,2.297748,1.544276
-1.783884,2.318000,1.638948
-1.816092,2.340448,1.696776
-1.891732,2.357284,1.718248
-1.972740,2.348500,1.710196
-2.013732,2.319220,1.704340
-2.003972,2.262368,1.698728
-1.964444,2.193804,1.708488
-1.901004,2.136952,1.750944
-1.807308,2.085712,1.801940
-1.714588,2.053260,1.810968
-1.671644,2.067412,1.782908
-1.682136,2.110600,1.747284
-1.763144,2.189412,1.653832
-1.771684,2.177944,1.574532
-1.746308,2.181604,1.504016
-1.722152,2.228452,1.411296
-1.728252,2.285792,1.315160
-1.742892,2.315072,1.247816
-1.752896,2.313364,1.194624
-1.749236,2.275056,1.148996
-1.736060,2.206248,1.101904
-1.721664,2.139636,1.063108
-1.711660,2.091812,1.038464
-1.710196,2.078880,1.017724
-1.718492,2.094740,1.004304
-1.741184,2.137928,1.006988
-1.775588,2.180140,0.988932
-1.792668,2.169892,0.888404
-1.755824,2.029348,0.921588
-1.755336,2.034228,0.932080
-1.792180,2.134268,0.895480
-1.840736,2.274324,0.832284
-1.879044,2.405840,0.770308
-1.897100,2.493680,0.741516
-1.874652,2.511492,0.734684
-1.811700,2.463668,0.730780
-1.734352,2.378756,0.721020
-1.654808,2.274080,0.723216
-1.579656,2.172820,0.737124
-1.523780,2.091568,0.750788
-1.497184,2.007388,0.805688
-1.469856,1.913936,0.860588
-1.455704,1.809260,0.912560
-1.454484,1.718248,0.977952
-1.467660,1.590636,1.071160
-1.480836,1.501820,1.132648
-1.541348,1.450580,1.168272
-1.630652,1.413736,1.187548
-1.708244,1.378600,1.161440
-1.779492,1.344196,1.136552
-1.854644,1.298080,1.109468
-1.912228,1.282464,1.054812
-1.973472,1.350540,1.008208
-2.143784,1.258064,0.524356
-2.277984,1.315160,0.808860
-2.325320,1.832196,0.912804
-2.314828,2.001532,0.631228
-2.280912,1.957856,0.261324
-2.268468,1.911740,0.111752
-2.192828,1.953708,0.056608
-2.020076,2.020564,-0.039528
-1.589416,1.974204,-0.107116
-1.356152,1.815116,-0.137372
-1.099708,1.827316,-0.173728
-0.909876,1.677500,-0.068808
-0.814716,1.493280,0.069784
-0.809348,1.321992,0.247660
-0.852536,1.233176,0.341356
-0.901824,1.165832,0.331108
-0.968436,1.064572,0.361852
-0.968680,1.083604,0.332572
-0.954772,1.057496,0.331108
-0.894992,1.078236,0.349652
-0.854732,1.065792,0.337208
-0.841068,0.887428,0.272304
-0.854488,0.851804,0.202276
-0.869616,0.831796,0.138104
-0.875716,0.787388,0.067344
-0.880596,0.738588,0.023668
-0.893528,0.705648,-0.012200
-0.916708,0.703208,-0.036600
-0.951112,0.736880,-0.054900
-0.996496,0.797880,-0.085400
-1.037488,0.862052,-0.132492
-1.053836,0.915976,-0.186904
-1.042368,0.941840,-0.233264
-1.005524,0.946720,-0.274500
-0.904508,0.897188,-0.280112
-0.833504,0.850828,-0.264984
-0.740052,0.811788,-0.244244
-0.625372,0.783484,-0.214964
-0.517768,0.754936,-0.181536
-0.431880,0.693692,-0.146644
-0.370636,0.626592,-0.111264
-0.330620,0.565592,-0.064172
-0.296460,0.532896,0.001708
-0.272548,0.535336,0.085400
-0.259860,0.558028,0.168848
-0.257908,0.585600,0.252052
-0.268888,0.622932,0.306708
-0.287432,0.643916,0.422852
-0.334768,0.660264,0.393816
-0.368196,0.671976,0.371612
-0.405528,0.700280,0.352824
-0.441640,0.720044,0.336476
-0.477508,0.720044,0.305732
-0.509472,0.700280,0.292800
-0.536800,0.668804,0.291824
-0.555100,0.636596,0.277916
-0.574620,0.604388,0.251564
-0.598288,0.570228,0.223748
-0.620492,0.544120,0.199592
-0.635132,0.536800,0.181780
-0.665144,0.467504,0.180316
-0.690276,0.423340,0.175680
-0.709552,0.385276,0.171288
-0.723948,0.352336,0.167140
-0.755180,0.305000,0.187880
-0.771284,0.277916,0.195200
-0.793000,0.254492,0.218380
-0.822280,0.229116,0.245708
-0.856928,0.209352,0.262544
-0.907436,0.208620,0.271816
-0.964532,0.208132,0.272304
-1.022604,0.202764,0.271328
-1.073600,0.168116,0.274012
-1.123864,0.090280,0.267180
-1.178764,0.004880,0.238144
-1.253428,-0.060756,0.195444
-1.348588,-0.109800,0.175192
-1.447896,-0.183976,0.159576
-1.532320,-0.277672,0.147132
-1.608204,-0.369904,0.111264
-1.675060,-0.457256,0.003416
-1.844884,-0.514352,-0.052460
-1.953220,-0.528260,-0.083204
-2.044232,-0.589992,-0.086132
-2.104012,-0.669292,-0.060756
-2.145736,-0.697840,0.000732
-2.184288,-0.704916,0.061000
-2.222596,-0.743956,0.171044
-2.236504,-0.623908,0.274256
-2.267248,-0.511668,0.578524
-2.289940,-0.442372,0.738344
-2.247484,-0.393084,0.888892
-2.179408,-0.378444,1.018212
-2.102548,-0.380884,1.148996
-2.042036,-0.298900,1.261480
-2.007388,-0.235704,1.408856
-1.979572,-0.170800,1.523780
-1.944192,-0.087108,1.620892
-1.930772,-0.059780,1.692628
-1.910520,0.104432,1.738988
-1.892220,0.198616,1.766804
-1.878068,0.279868,2.059604
-1.922964,0.814960,1.534028
-1.894172,0.675148,1.261724
-1.805112,0.544364,1.504016
-1.787544,0.490440,1.475956
-1.825364,0.512888,1.395436
-1.807064,0.646356,1.391532
-1.698728,0.768112,1.376160
-1.611620,0.864248,1.314672
-1.577948,0.955260,1.231468
-1.437648,1.156560,1.558916
-1.472052,1.085312,1.303448
-1.361520,1.073600,1.336144
-1.270508,1.127036,1.413004
-1.179984,1.214876,1.457900
-1.100440,1.295884,1.510604
-0.936960,1.324676,1.529636
-0.864004,1.382016,1.574532
-0.847900,1.537444,1.626016
-0.896212,2.078636,1.562820
-0.858636,1.780712,1.534272
-0.835456,1.975180,1.570384
-0.792756,2.306288,1.486448
-0.759084,2.338740,1.323700
-0.716140,2.391688,1.135576
-0.702476,2.442684,0.938912
-0.678564,2.489532,0.714188
-0.634156,2.514176,0.483608
-0.554368,2.492216,0.293532
-0.382104,2.220644,0.154940
-0.332328,2.865780,0.305488
0.188368,2.623976,0.192760
0.407724,2.563708,0.272792
0.508008,2.530768,0.445300
0.487756,2.369728,0.562908
0.433588,2.085712,0.624884
0.520452,2.007144,0.554612
0.327448,1.892708,0.439688
0.113460,1.758996,0.366976
-0.014152,1.633824,0.358924
-0.071248,1.518412,0.293532
-0.002440,1.480348,0.383080
0.039284,1.486448,0.391132
0.028304,1.469368,0.399184
-0.008296,1.417884,0.418460
-0.073932,1.365424,0.440176
-0.148352,1.342000,0.476532
-0.226188,1.256112,0.471408
-0.303536,1.167296,0.445788
-0.364048,1.160952,0.464332
-0.422852,1.164612,0.497516
-0.575352,1.139724,0.446520
-0.605120,1.167784,0.440420
-0.640500,1.231956,0.372344
-0.671488,1.320040,0.333792
-0.693936,1.386408,0.310856
-0.694912,1.484496,0.290848
-0.659044,1.610888,0.267424
-0.569496,1.735572,0.256444
-0.447984,1.788032,0.203252
-0.330620,1.778516,0.159576
-0.236192,1.757044,0.172020
-0.166896,1.777052,0.234240
-0.193980,1.804624,0.273036
-0.124196,1.929796,0.403820
0.033672,1.922720,0.377712
0.015860,1.906616,0.288652
-0.043920,1.892708,0.148108
-0.118584,1.853668,0.025864
-0.182268,1.787544,-0.046848
-0.234972,1.731424,-0.050752
-0.271572,1.694580,-0.041236
-0.304268,1.664812,-0.053680
-0.336720,1.637240,-0.081252
-0.356484,1.613572,-0.106140
-0.370636,1.601128,-0.132004
-0.382348,1.596004,-0.149816
-0.383812,1.593564,-0.174216
-0.391864,1.579656,-0.218868
-0.408944,1.549888,-0.337452
-0.444568,1.503772,-0.384300
-0.458476,1.490840,-0.413092
-0.465552,1.471320,-0.422852
-0.464576,1.452532,-0.416020
-0.454816,1.421056,-0.398452
-0.429440,1.389580,-0.372588
-0.398452,1.341512,-0.320128
-0.378688,1.270996,-0.310612
-0.376492,1.226832,-0.227652
-0.384788,1.236592,-0.120292
-0.424560,1.283684,-0.056608
-0.438224,1.302716,-0.014884
-0.443592,1.313696,0.018056
-0.449204,1.312964,0.070760
-0.444568,1.289052,0.101992
-0.423828,1.243668,0.130784
-0.434808,1.238056,0.190320
-0.467748,1.321260,0.250344
-0.507520,1.340292,0.305244
-0.547048,1.386896,0.371368
-0.592920,1.431548,0.426512
-0.634156,1.453996,0.453352
-0.650260,1.442772,0.461892
-0.661240,1.420080,0.467016
-0.689300,1.342976,0.475556
-0.705404,1.295884,0.477752
-0.729316,1.254404,0.480680
-0.760304,1.207068,0.488732
-0.787388,1.153876,0.497760
-0.814960,1.089704,0.506544
-0.841312,1.026264,0.504836
-0.863760,0.973560,0.504836
-0.885964,0.924760,0.510448
-0.909632,0.877668,0.512400
-0.922076,0.829112,0.501176
-0.929396,0.787876,0.492636
-0.941352,0.761280,0.479460
-0.957944,0.733464,0.457744
-0.967460,0.702720,0.414312
-0.970388,0.671976,0.368196
-0.970144,0.642940,0.255712
-0.984540,0.606096,0.193004
-0.991128,0.601216,0.129320
-0.993080,0.596092,0.055144
-0.992592,0.587552,-0.010492
-0.989664,0.576816,-0.056120
-0.995276,0.551928,-0.081984
-0.998448,0.499956,-0.075152
-0.991128,0.431392,-0.060268
-0.975268,0.374784,-0.046848
-0.950868,0.336964,-0.030256
-0.922320,0.312320,-0.000976
-0.896212,0.289140,0.015128
-0.876204,0.264740,0.022692
-0.840580,0.216672,0.033184
-0.831308,0.202764,0.043676
-0.817156,0.208132,0.063684
-0.804468,0.223016,0.078324
-0.819352,0.261080,0.084912
-0.827892,0.306464,0.067344
-0.829356,0.354288,0.059536
-0.833748,0.416264,0.076372
-0.830820,0.496784,0.101992
-0.803248,0.590968,0.120292
-0.763476,0.584868,0.158112
-0.706136,0.669536,0.175436
-0.664168,0.726388,0.201788
-0.622444,0.793976,0.232044
-0.602924,0.826428,0.236192
-0.619028,0.823500,0.273036
-0.657092,0.834724,0.308172
-0.705648,0.847656,0.339160
-0.755180,0.890600,0.374540
-0.812276,0.949160,0.432368
-0.872300,1.009428,0.501664
-0.937936,1.062864,0.562420
-0.996008,1.097268,0.612440
-1.036024,1.114836,0.660020
-1.061156,1.143628,0.711748
-1.073356,1.191208,0.750788
-1.073112,1.263676,0.790560
-1.070184,1.354444,0.823988
-1.064816,1.446188,0.858880
-1.062132,1.509872,0.919148
-1.076772,1.527440,0.935496
-1.090924,1.494500,0.953308
-1.109468,1.473516,0.981856
-1.131184,1.471320,0.998204
-1.158024,1.466928,1.015528
-1.200968,1.452288,1.043100
-1.252696,1.436916,1.073112
-1.299788,1.403000,1.097268
-1.341512,1.376892,1.116300
-1.379332,1.352736,1.126548
-1.408368,1.251720,1.116544
-1.460340,1.230980,1.099220
-1.463268,1.197064,1.078968
-1.451800,1.173884,1.060180
-1.438624,1.148264,1.035292
-1.434476,1.126792,1.003572
-1.436672,1.103368,0.964776
-1.440088,1.062864,0.924272
-1.448140,1.009672,0.890112
-1.454484,0.947696,0.875228
-1.458876,0.879132,0.861320
-1.450824,0.838872,0.870836
-1.433256,0.809348,0.904508
-1.433500,0.781532,0.936960
-1.417152,0.763232,0.969656
-1.385188,0.723948,1.000156
-1.367620,0.690276,1.018944
-1.327116,0.628788,1.063596
-1.321748,0.560468,1.065548
-1.330044,0.490928,1.056520
-1.338340,0.434564,1.027972
-1.331264,0.406748,1.000156
-1.309060,0.404064,0.981612
-1.273436,0.416996,0.979172
-1.220244,0.473116,0.997228
-1.145824,0.532164,1.041880
-1.063108,0.568520,1.117764
-0.987956,0.604632,1.205604
-0.917928,0.643428,1.307108
-0.853756,0.693448,1.408124
-0.792756,0.747860,1.519144
-0.730536,0.803248,1.617964
-0.666120,0.850340,1.701900
-0.604144,0.884012,1.762656
-0.555832,0.875960,1.867088
-0.499468,0.823012,1.792180
-0.490440,0.801296,1.755580
-0.485804,0.774700,1.695312
-0.483608,0.754936,1.626992
-0.473360,0.731756,1.564040
-0.462868,0.698084,1.500844
-0.468480,0.673928,1.444724
-0.481656,0.649772,1.401536
-0.478728,0.641476,1.374940
-0.444568,0.653676,1.393728
-0.401380,0.660996,1.437160
-0.363560,0.672464,1.474980
-0.334280,0.688324,1.507920
-0.314028,0.690520,1.544032
-0.287920,0.704428,1.577460
-0.255224,0.748348,1.670180
-0.190808,0.796172,1.656516
-0.175192,0.773968,1.657248
-0.177632,0.737856,1.639924
-0.183976,0.732000,1.610644
-0.194468,0.748836,1.590392
-0.206180,0.754204,1.585756
-0.214476,0.738588,1.580144
-0.200080,0.686372,1.555744
-0.197152,0.622932,1.517192
-0.231312,0.581208,1.493524
-0.263032,0.554856,1.460340
-0.298412,0.555832,1.426424
-0.325740,0.572424,1.395436
-0.338428,0.595360,1.391044
-0.341844,0.610000,1.406904
-0.354044,0.603900,1.432768
-0.363804,0.569008,1.406172
-0.374052,0.559736,1.353224
-0.383568,0.569008,1.291980
-0.390888,0.582672,1.240740
-0.398940,0.602680,1.199504
-0.406260,0.601216,1.176812
-0.394304,0.568032,1.156560
-0.361364,0.524600,1.116788
-0.316956,0.495320,1.063108
-0.267180,0.464820,1.014552
-0.231068,0.425048,0.978684
-0.208864,0.391620,0.952332
-0.172996,0.392840,0.930372
-0.118340,0.419680,0.930860
-0.077592,0.447252,0.950868
-0.079544,0.406992,0.936472
-0.081740,0.341844,0.923296
-0.120780,0.301584,0.916464
-0.107360,0.300608,0.901824
-0.062220,0.347212,0.920856
-0.016104,0.403088,0.961116
0.034892,0.412848,0.992592
0.063196,0.403332,1.005768
0.056120,0.395280,0.992592
0.005612,0.370636,0.933056
-0.059048,0.325496,0.853024
-0.111020,0.301340,0.765672
-0.139812,0.309636,0.678076
-0.154452,0.356972,0.554612
-0.166164,0.427244,0.505080
-0.170556,0.408456,0.436028
-0.169580,0.363072,0.359412
-0.169824,0.329156,0.284504
-0.169580,0.317688,0.226676
-0.174460,0.310124,0.184464
-0.188368,0.303048,0.149816
-0.209840,0.308416,0.122244
-0.205936,0.336720,0.146888
-0.201056,0.322812,0.101748
-0.200568,0.316468,0.070516
-0.218380,0.307440,0.065636
-0.242048,0.285236,0.048068
-0.263520,0.260104,-0.016104
-0.272060,0.201300,-0.036844
-0.272304,0.199836,-0.067344
-0.278648,0.217648,-0.085644
-0.329888,0.245708,-0.120536
-0.378688,0.242048,-0.143960
-0.422852,0.196420,-0.229604
-0.413580,0.136640,-0.336964
-0.368928,0.137860,-0.298412
-0.326716,0.142496,-0.217404
-0.313052,0.144692,-0.160064
-0.316468,0.162260,-0.105408
-0.335256,0.171532,-0.109556
-0.366976,0.141032,-0.162748
-0.362096,0.080520,-0.194956
-0.335256,0.018056,-0.231800
-0.326228,-0.027328,-0.245952
-0.328668,-0.056120,-0.254004
-0.336232,-0.095892,-0.265960
-0.353800,-0.116632,-0.308172
-0.374052,-0.111264,-0.349652
-0.402112,-0.080764,-0.359656
-0.408944,-0.068564,-0.373808
-0.404796,-0.040260,-0.452620
-0.357948,-0.013176,-0.457988
-0.341356,0.024644,-0.460428
-0.341356,0.085156,-0.468724
-0.337696,0.142252,-0.484096
-0.315248,0.189588,-0.558516
-0.273524,0.245220,-0.673196
-0.232288,0.313784,-0.750056
-0.223260,0.363072,-0.830820
-0.226188,0.425780,-0.918904
-0.219112,0.566568,-1.069940
-0.149328,0.645868,-1.157536
-0.097356,0.707600,-1.224880
-0.028304,0.789828,-1.287588
0.057340,0.742004,-1.321992
0.149084,0.648064,-1.331996
0.218380,0.567544,-1.322236
0.253028,0.520940,-1.314672
0.263764,0.499468,-1.287588
0.273280,0.469212,-1.190232
0.284992,0.448960,-1.043100
0.295972,0.451888,-0.880840
0.293044,0.492148,-0.705648
0.281576,0.544120,-0.539728
0.256200,0.587796,-0.415776
0.227652,0.626348,-0.347456
0.186416,0.669780,-0.330864
0.134932,0.708576,-0.425780
0.008296,0.787876,-0.377224
-0.073688,0.826428,-0.349652
-0.168360,0.871080,-0.299876
-0.283772,0.952820,-0.259616
-0.446276,1.079212,-0.234728
-0.610000,1.252696,-0.187148
-0.746396,1.400804,-0.111508
-0.813740,1.535980,-0.032452
-0.830820,1.716784,0.010492
-0.790560,1.986892,0.053436
-0.689300,2.331664,0.054656
-0.534360,2.603724,-0.093208
-0.347700,2.700348,-0.400648
-0.164944,2.575176,-0.776896
-0.007808,1.883680,-1.202432
0.144448,1.546228,-1.084824
0.120780,1.416908,-0.732244
0.010004,1.506212,-0.215696
-0.148840,1.741672,0.298412
-0.311588,1.999824,0.657824
-0.465796,2.220888,0.818864
-0.618784,2.422188,0.833992
-0.786168,2.571516,0.770552
-0.968680,2.638616,0.682224
-1.130940,2.646912,0.572424
-1.240740,2.640080,0.433832
-1.301740,2.647156,0.290116
-1.325164,2.685220,0.162016
-1.337364,2.755492,0.054412
-1.311500,2.822592,-0.054900
-1.239520,2.888228,-0.179828
-1.151436,2.914824,-0.338672
-0.968436,2.760860,-0.350140
-0.877424,2.653988,-0.327448
-0.782752,2.569076,-0.281088
-0.696864,2.496120,-0.214476
-0.626348,2.426336,-0.128588
-0.568520,2.363872,-0.039040
-0.525088,2.325320,0.060024
-0.498248,2.296772,0.179828
-0.488244,2.278472,0.311344
-0.513376,2.289940,0.444324
-0.566324,2.326052,0.573888
-0.626104,2.355576,0.695400
-0.700036,2.365824,0.868884
-0.726632,2.349964,0.895968
-0.759084,2.323612,0.916708
-0.786656,2.281400,0.928908
-0.795196,2.208444,0.903532
-0.774456,2.130608,0.841556
-0.717360,1.919304,0.880352
-0.715164,1.900272,0.753716
-0.774212,1.895880,0.583892
-0.732488,1.890024,0.652212
-0.706136,1.812188,0.523380
-0.733464,1.695068,0.345992
-0.755912,1.590148,0.237656
-0.755668,1.499868,0.176900
-0.743712,1.411052,0.140544
-0.723460,1.314916,0.112484
-0.690276,1.195356,0.132248
-0.664412,1.143384,0.172264
-0.637572,1.089216,0.212524
-0.639036,1.078236,0.241072
-0.636596,1.069208,0.298656
-0.636108,1.018700,0.335256
-0.604876,0.946964,0.386252
-0.582428,0.876692,0.366976
-0.602192,0.893040,0.476776
-0.630740,0.896456,0.559004
-0.661972,0.881816,0.574376
-0.700280,0.855952,0.619028
-0.732732,0.831796,0.656116
-0.756888,0.823012,0.678808
-0.767624,0.808372,0.692228
-0.766648,0.738588,0.657824
-0.766648,0.690520,0.638060
-0.780312,0.635376,0.607560
-0.802516,0.570472,0.566812
-0.830576,0.514108,0.523868
-0.867908,0.470188,0.464820
-0.904508,0.420900,0.408212
-0.935496,0.370880,0.369660
-0.960140,0.344284,0.348432
-0.977952,0.322568,0.314760
-0.980636,0.295240,0.288408
-0.984052,0.275964,0.207888
-1.045540,0.328668,0.225944
-1.080676,0.321836,0.247904
-1.094340,0.261080,0.283040
-1.090680,0.175192,0.306220
-1.088484,0.099796,0.312808
-1.102880,0.020008,0.316956
-1.123376,-0.027816,0.333792
-1.156560,-0.055144,0.345016
-1.184132,-0.099308,0.338184
-1.190232,-0.156648,0.335012
-1.188768,-0.202520,0.336720
-1.171444,-0.239608,0.354044
-1.152412,-0.260836,0.386740
-1.142164,-0.274988,0.464332
-1.138992,-0.259616,0.502884
-1.102880,-0.234972,0.511668
-1.069696,-0.187148,0.528260
-1.050908,-0.140056,0.543388
-1.041392,-0.104920,0.555588
-1.043344,-0.090768,0.551684
-1.040416,-0.102480,0.526064
-1.026264,-0.094428,0.505812
-0.986248,-0.102724,0.461404
-0.888648,-0.008296,0.458476
-0.918660,0.019764,0.448472
-0.837896,0.064172,0.434320
-0.733220,0.101016,0.433588
-0.640744,0.137860,0.484584
-0.630252,0.187636,0.547780
-0.608780,0.242536,0.595360
-0.599752,0.284992,0.658800
-0.597312,0.314028,0.719312
-0.560712,0.333792,0.762500
-0.510936,0.337940,0.791536
-0.438956,0.329156,0.821792
-0.341600,0.324276,0.845948
-0.235460,0.339404,0.893772
-0.136152,0.379420,0.964044
-0.041968,0.425048,1.029680
0.023180,0.485560,1.077748
0.069052,0.546804,1.106784
0.101260,0.622200,1.124352
0.155916,0.669048,1.168516
0.225700,0.745176,1.287832
0.379420,0.877912,1.337120
0.456768,0.945744,1.405928
0.553392,0.979172,1.361520
0.596336,0.973560,1.402024
0.627080,0.952332,1.501088
0.654164,0.936472,1.549644
0.666364,0.946720,1.539884
0.651480,0.979172,1.558184
0.626104,0.992836,1.565504
0.608292,0.995032,1.553792
0.594384,0.984784,1.508164
0.574132,0.942084,1.473272
0.560224,0.907680,1.358348
0.548756,0.843508,1.269288
0.558028,0.717360,1.021384
0.576572,0.706624,1.019676
0.604388,0.643916,1.096292
0.631228,0.533628,1.046272
0.628788,0.466040,0.964776
0.607804,0.443592,0.903776
0.585844,0.395524,0.893772
0.567544,0.281576,0.853268
0.542168,0.162748,0.803736
0.519720,0.069540,0.765184
0.500444,-0.105896,0.713700
0.488244,-0.204472,0.685884
0.472872,-0.283284,0.644892
0.408944,-0.266692,0.653432
0.357216,-0.243512,0.670756
0.294020,-0.213500,0.700036
0.225944,-0.185440,0.724436
0.149816,-0.161040,0.710284
0.081008,-0.132980,0.699792
0.035380,-0.103456,0.691740
0.010980,-0.059048,0.683444
0.008540,0.003660,0.675148
0.016104,0.070760,0.689300
0.031720,0.116876,0.716140
0.060024,0.139812,0.736880
0.094916,0.165432,0.767868
0.144936,0.179096,0.792512
0.205692,0.183244,0.831796
0.267912,0.164456,0.897188
0.314272,0.123952,0.973804
0.346724,0.061732,1.042612
0.372832,-0.081252,1.120692
0.373564,-0.183732,1.153876
0.324520,-0.238388,1.185596
0.266692,-0.263276,1.169004
0.191784,-0.258640,1.133868
0.120292,-0.254004,1.110200
0.077348,-0.104920,1.010160
-0.009028,-0.010980,0.615368
-0.194712,-0.117364,0.183732
-0.364048,-0.153720,0.009272
-0.441152,-0.203008,0.020984
-0.408456,-0.291092,0.036844
-0.310612,-0.467992,-0.014396
-0.203984,-0.755424,-0.043676
-0.117852,-0.773968,0.057584
-0.048800,-0.661484,0.260592
0.043920,-0.438956,0.510936
0.152744,-0.171288,0.662704
0.173484,-0.002684,0.697840
0.116632,0.077836,0.823012
0.062708,0.052216,0.950136
0.026596,0.033428,1.047492
0.032208,0.019276,1.143140
0.085400,0.005856,1.257576
0.150304,0.009028,1.354444
0.191052,0.025864,1.400072
0.214232,0.023668,1.374452
0.225700,-0.069052,1.220488
0.220820,-0.003416,1.200236
0.218868,-0.048556,1.195600
0.217648,0.033184,1.424472
0.238876,0.056608,1.560868
0.273036,0.028304,1.494988
0.317444,-0.007564,1.449604
0.354532,-0.031476,1.399096
0.389668,-0.040748,1.223172
0.400404,0.029280,1.142652
0.353312,0.207156,1.179496
0.322324,-0.190076,0.773480
0.288164,-0.275232,0.881816
0.248148,-0.331352,0.868884
0.203252,-0.268400,0.895968
0.167140,-0.104432,1.032852
0.132736,-0.061976,0.921100
0.104432,-0.026840,0.874252
0.044408,-0.010736,0.860832
-0.040992,-0.078324,0.829600
-0.136640,-0.150548,0.823500
-0.193248,-0.209352,0.836676
-0.193736,-0.234484,0.860832
-0.140056,-0.216916,0.910120
-0.068320,-0.180072,1.063596
0.026108,-0.140788,1.150460
0.038796,-0.163724,1.224636
0.036112,-0.147864,1.290028
0.024888,-0.085888,1.346148
0.018300,-0.013664,1.415444
0.021472,0.044408,1.472784
0.043188,0.099064,1.505968
0.074176,0.130540,1.494012
0.103700,0.145912,1.463756
0.144204,0.151280,1.382748
0.177876,0.154452,1.493768
0.225212,0.131028,1.428620
0.271572,0.159332,1.398364
0.330620,0.172508,1.305400
0.381860,0.207644,1.208776
0.428464,0.219112,1.291492
0.424804,0.196664,1.192184
0.402600,0.239364,1.170224
0.374052,0.103212,0.721996
0.317444,0.022936,0.711504
0.272548,-0.105652,0.479216
0.250832,-0.103456,0.504836
0.225456,-0.026596,0.467748
0.226432,0.166896,0.470676
0.232776,0.140056,0.646844
0.223748,0.086864,0.683932
0.183976,0.109556,0.875716
0.109068,-0.036600,0.592188
0.092720,-0.036356,0.557296
0.082716,-0.139812,0.143472
0.111752,-0.071004,1.259772
0.123952,-0.145912,1.158024
0.035136,-0.025132,0.911340
0.022204,0.061000,1.012356
0.080764,-0.032696,1.058228
0.120292,-0.178120,1.199504
0.112972,-0.215208,1.597468
-0.002928,-0.121024,1.383724
-0.105408,0.080276,1.287588
-0.043188,-0.068808,1.255868
0.008784,-0.183732,1.308572
0.010248,-0.189344,1.373232
-0.013908,-0.070516,1.439112
0.003660,-0.054168,1.587220
0.058316,-0.046604,1.636752
0.138592,-0.051484,1.617476
0.199592,-0.078080,1.502064
0.180072,-0.008540,1.263920
0.127612,0.186660,1.004548
0.054168,0.490440,0.633668
0.035868,0.445300,0.275720
0.205692,-0.082960,0.312076
0.362584,-0.270352,0.449692
0.440664,-0.078080,0.481900
0.457988,0.188856,0.497028
0.383812,0.228140,0.535580
0.277428,0.365756,0.556076
0.189344,0.476776,0.524356
0.162748,0.470188,0.559980
0.193980,0.372344,0.716384
0.227408,0.277916,0.910364
0.247660,0.208132,1.048712
0.248636,0.133712,1.132404
0.181780,0.153476,1.105808
0.101016,0.141032,1.090924
0.070516,0.036844,1.060424
0.078568,-0.044164,1.030656
0.105408,-0.078080,1.001620
0.130540,-0.123464,0.919148
0.138836,-0.132004,0.873276
0.146156,-0.077348,0.907436
0.124928,-0.026108,0.963800
0.129808,-0.020252,0.980392
0.131028,-0.028304,1.009672
0.118584,-0.024156,1.052128
0.107848,0.004148,1.113372
0.065880,0.093940,1.107760
0.034160,0.080276,1.095804
0.023424,0.023424,1.073844
0.041480,-0.003660,1.033096
0.069784,0.002440,0.993568
0.102968,-0.000488,0.976488
0.088572,0.018300,1.020408
0.046604,0.021228,1.035048
-0.010980,0.048556,0.992836
-0.037820,0.044408,0.910364
-0.007564,0.000244,0.857172
0.032940,-0.012932,0.866688
0.047092,0.005368,0.883768
0.033672,0.028792,0.961360
0.028304,0.006832,1.005036
0.009028,0.069296,1.088728
0.000000,0.134688,1.177056
-0.000488,0.173728,1.235616
-0.000488,0.156892,1.214876
-0.022692,0.121756,1.184620
-0.016348,0.094428,1.213900
0.001952,0.022448,1.297348
-0.107116,-0.184708,1.392264
-0.216184,-0.155916,1.241472
-0.311344,0.054656,0.983564
-0.245952,0.225456,0.820816
-0.063196,0.115412,0.788608
0.197396,-0.157624,0.760304
0.358436,-0.375272,0.805932
0.437004,-0.406260,0.831064
0.460184,-0.466528,0.678808
0.442860,-0.434808,0.437248
0.400404,-0.331352,0.408944
0.291336,-0.201300,0.681492
0.197640,-0.126636,1.025044
0.141764,-0.123708,1.257332
0.117364,-0.162260,1.223172
0.131028,-0.193248,1.096048
0.133956,-0.228628,1.005524
0.121268,-0.273524,0.969900
0.101504,-0.303536,0.964532
0.093208,-0.296704,0.956968
0.126636,-0.255468,0.935984
0.121756,-0.259860,0.940620
0.114436,-0.250100,0.924516
0.084668,-0.254980,0.924028
0.057584,-0.292800,0.937204
0.078568,-0.367220,0.964776
0.029036,-0.361608,0.913292
-0.057096,-0.164700,0.828868
-0.133468,0.143960,0.746152
-0.184464,0.542900,1.152656
-0.025620,0.755668,1.247084
0.169336,0.331108,1.229028
0.316224,-0.080276,1.160952
0.345748,-0.391132,1.045296
0.329400,-0.477264,0.999180
0.278892,-0.390400,0.972584
0.205692,-0.241560,0.938668
0.115900,-0.103700,0.916708
0.037576,-0.013176,0.913780
-0.004636,0.012200,0.906704
-0.043432,0.013908,0.900604
-0.063684,0.030012,0.922320
-0.075640,0.045140,0.958432
-0.079544,0.051484,0.975756
-0.072224,0.054656,0.916220
-0.044408,-0.007564,0.830332
-0.016104,-0.041480,0.834724
0.000488,0.071736,0.848388
0.022204,0.184220,0.799832
0.049776,0.136884,0.785924
0.086620,-0.001708,0.874252
0.128832,-0.133956,1.005036
0.170068,-0.194712,1.089948
0.185440,-0.187148,1.054812
0.156892,-0.133468,0.961848
0.118096,-0.092232,0.879864
0.089060,-0.083936,0.860344
0.079300,-0.089060,0.889380
0.090524,-0.098576,0.935496
0.105408,-0.095892,0.978684
0.119316,-0.067100,1.017968
0.128832,0.041968,1.005768
0.122488,0.079544,0.990884
0.111996,0.078812,0.964288
0.096868,0.053680,0.938668
0.081984,0.040260,0.911340
0.064172,0.034648,0.901336
0.041724,0.050020,0.882060
0.022204,0.046360,0.880596
0.003172,0.045384,0.894016
-0.011712,0.073688,0.910608
-0.010492,0.132980,0.924028
-0.003660,0.173972,0.927932
0.002684,0.168604,0.978440
0.039284,0.119316,1.046760
0.115168,-0.015860,1.082872
0.137860,-0.170556,1.037488
0.126148,-0.183000,1.057008
0.137128,-0.141764,1.047492
0.125660,-0.081008,1.016260
0.113460,-0.044164,0.993812
0.094672,-0.033184,0.973804
0.107360,-0.056852,0.954528
0.087352,-0.106140,0.948184
0.087108,-0.124196,0.942816
0.085644,-0.124440,0.930616
0.112728,-0.118340,0.920124
0.093696,-0.109556,0.927932
0.073932,-0.111752,0.938180
0.070272,-0.128832,0.952088
0.049044,-0.148596,0.975756
0.041236,-0.169092,0.992104
0.038064,-0.167628,0.999424
0.041480,-0.142252,0.983320
0.069784,-0.084424,0.970876
0.109556,-0.018544,0.996984
0.148596,0.013420,1.048468
0.167140,-0.009516,1.132160
0.164700,-0.102236,1.193404
0.161528,-0.211548,1.204872
0.167384,-0.287920,1.182912
0.162748,-0.312808,1.136308
0.139324,-0.217892,1.008696
0.114192,-0.092232,0.942816
0.092232,-0.052460,0.875228
0.065148,-0.036844,0.836188
0.035136,-0.027572,0.809348
0.013908,-0.015616,0.811544
0.005856,-0.010736,0.823988
-0.000244,-0.006344,0.843752
0.006100,-0.002928,0.872788
0.020496,-0.006100,0.912316
0.042700,-0.030744,0.959896
0.080032,-0.091500,1.000888
0.101504,-0.168116,1.059936
0.095892,-0.230092,1.101416
0.073932,-0.271328,1.091168
0.040504,-0.293288,1.059448
-0.030256,-0.275964,1.027728
-0.057096,-0.208620,1.039928
-0.063928,-0.116632,1.063352
-0.063928,-0.059780,1.058716
-0.069540,-0.036844,1.037488
-0.080032,-0.036844,1.020408
-0.089060,-0.057096,1.000400
-0.086132,-0.096136,0.988200
-0.068808,-0.143960,0.978196
-0.055632,-0.171776,0.978928
-0.050996,-0.181292,0.986736
-0.054412,-0.175680,0.991860
-0.076616,-0.154940,0.971120
-0.090036,-0.153720,0.973560
-0.093696,-0.136884,0.983076
-0.087596,-0.108092,0.991372
-0.070760,-0.088572,1.000400
-0.045384,-0.087108,1.006988
-0.018788,-0.093696,1.010892
0.001708,-0.101504,1.018700
0.015372,-0.097844,1.020408
0.020008,-0.095648,1.018700
0.034160,-0.109556,1.017236
0.045628,-0.120048,1.015284
0.061488,-0.136640,0.984784
0.062220,-0.180804,0.959896
0.033184,-0.198860,0.958920
-0.003904,-0.214964,0.961116
-0.043676,-0.228872,0.971120
-0.086620,-0.223504,0.989176
-0.122732,-0.207888,1.009184
-0.155428,-0.191784,1.006988
-0.177388,-0.155184,0.993080
-0.177876,-0.134444,0.981368
-0.171776,-0.141032,0.939644
-0.171044,-0.134444,0.906948
-0.171288,-0.104188,0.920368
-0.167628,-0.087108,0.963068
-0.164700,-0.111508,1.001864
-0.153476,-0.149816,1.018212
-0.140300,-0.196664,1.010404
-0.146400,-0.243268,1.018700
-0.160064,-0.278160,1.030900
-0.165920,-0.284016,1.027728
-0.155916,-0.264252,1.023824
-0.144204,-0.229360,1.016748
-0.137616,-0.191540,1.018212
-0.141764,-0.174948,1.029924
-0.150060,-0.101016,1.062620
-0.137860,-0.062464,1.062620
-0.135908,-0.039528,1.059692
-0.142984,-0.027328,1.032608
-0.152744,-0.006588,0.987224
-0.178120,0.032940,0.981368
-0.180316,0.045140,1.039684
-0.171288,0.010492,1.006988
-0.160552,-0.039772,0.944280
-0.117364,-0.125172,0.869860
-0.082960,-0.222284,0.831796
-0.056852,-0.333792,0.985272
-0.061244,-0.446764,1.247084
-0.110288,-0.496052,1.611132
-0.291824,-0.332084,1.463268
-0.367952,-0.128100,1.203896
-0.401624,0.071248,0.961116
-0.355264,0.160796,0.657824
-0.288408,0.171776,0.464576
-0.245220,0.239120,0.374296
-0.193004,0.300608,0.300120
-0.148596,0.392108,0.302560
-0.142740,0.495564,0.420412
-0.046604,0.532164,0.591944
0.078812,0.461160,0.744932
0.163724,0.294508,0.925004
0.167384,0.095648,1.139480
0.086864,-0.070760,1.328336
-0.031232,-0.212524,1.423252
-0.155184,-0.297436,1.386896
-0.286212,-0.225944,1.111664
-0.295484,-0.147864,1.003816
-0.284504,-0.091744,0.976488
-0.267180,-0.077836,0.993324
-0.246684,-0.082716,1.034072
-0.233752,-0.099308,1.077016
-0.226676,-0.114436,1.110688
-0.231556,-0.120048,1.118252
-0.299876,-0.132736,0.846680
-0.447740,-0.023180,-0.078568
-0.339160,0.072712,1.277828
-0.309148,-0.119072,1.440576
-0.337452,-0.107848,1.096536
-0.355264,-0.088084,1.173152
-0.383812,-0.126880,1.141188
-0.366976,-0.139812,1.048468
-0.328668,-0.125172,1.050664
-0.274256,-0.115412,1.083116
-0.233264,-0.132980,1.087020
-0.208864,-0.158844,1.068476
-0.194712,-0.157380,1.008452
-0.191540,-0.167872,1.024312
-0.181048,-0.179584,1.001620
-0.161284,-0.173240,0.977708
-0.147376,-0.161772,0.970632
-0.141520,-0.142252,0.891088
-0.146888,-0.168116,0.915488
-0.149328,-0.188368,0.929640
-0.157380,-0.173240,0.977464
-0.170068,-0.129076,1.034316
-0.182756,-0.085156,1.083604
-0.191052,-0.078080,1.088240
-0.225944,-0.060268,0.854732
-0.257420,-0.061488,0.771528
-0.233752,-0.122488,1.061644
-0.250832,-0.151280,0.989176
-0.255468,-0.183976,0.961604
-0.258152,-0.186416,0.965508
-0.257176,-0.159332,0.954284
-0.236436,-0.153476,0.953308
-0.229604,-0.150304,0.954040
-0.232044,-0.157868,0.946720
-0.237168,-0.158844,0.948428
-0.233020,-0.161528,0.950136
-0.219112,-0.157136,0.958188
-0.217160,-0.153232,0.958432
-0.226432,-0.155428,0.955260
-0.233996,-0.146644,0.960140
-0.233508,-0.134688,0.962336
-0.234484,-0.125172,0.970632
-0.239852,-0.125660,0.975756
-0.248148,-0.128588,0.975268
-0.270108,-0.151768,0.971852
-0.274988,-0.148596,0.969168
-0.258396,-0.133468,0.965508
-0.228140,-0.145912,0.969412
-0.219600,-0.168848,0.960140
-0.219356,-0.177876,0.961604
-0.222528,-0.161040,0.961116
-0.226920,-0.143472,0.971852
-0.230336,-0.135908,0.977220
-0.225456,-0.145180,0.989176
-0.211792,-0.150548,0.989420
-0.216672,-0.143960,0.986004
-0.239120,-0.135908,0.986492
-0.249124,-0.139080,1.000156
-0.241560,-0.146400,0.981856
-0.233020,-0.154940,0.995520
-0.225456,-0.152012,0.982344
-0.224724,-0.141764,0.994056
-0.226432,-0.129076,0.985272
-0.227408,-0.115900,0.990884
-0.228872,-0.108824,0.990396
-0.225944,-0.105164,1.057008
-0.206424,-0.091256,0.998936
-0.197884,-0.091744,0.996008
-0.192028,-0.100284,0.993080
-0.195444,-0.114680,0.990640
-0.204228,-0.119072,0.992592
-0.214232,-0.116876,0.994056
-0.226676,-0.105896,0.997228
-0.228384,-0.083204,0.998936
-0.219356,-0.082472,0.999424
-0.219356,-0.078080,1.000644
-0.227652,-0.079300,1.000888
-0.242048,-0.087596,1.001132
-0.256444,-0.097356,0.996740
-0.273768,-0.104432,1.012112
-0.280844,-0.097844,1.008208
-0.279868,-0.087596,1.017724
-0.264496,-0.083448,1.005280
-0.259616,-0.084180,1.004304
-0.255712,-0.071004,1.005280
-0.244000,-0.058804,1.008696
-0.235460,-0.062952,1.004304
-0.227652,-0.069052,1.001376
-0.233020,-0.000976,1.000888
-0.244732,-0.054168,1.000400
-0.244488,-0.052948,1.001620
-0.238388,-0.055388,1.000888
-0.235216,-0.061488,1.000888
-0.232288,-0.062220,1.000644
-0.230824,-0.059048,1.000644
-0.236924,-0.055144,1.001620
-0.242292,-0.052460,1.006012
-0.247416,-0.047580,1.005036
-0.249612,-0.047824,1.007964
-0.241560,-0.045384,1.010648
-0.233020,-0.049044,1.011624
-0.224480,-0.050264,1.013576
-0.218868,-0.052704,1.014308
-0.219112,-0.046360,1.017236
-0.223016,-0.040260,1.021384
-0.226188,-0.035380,1.020652
-0.232044,-0.035380,1.026264
-0.225700,-0.036356,1.021628
-0.218380,-0.042944,1.018212
-0.205936,-0.052460,1.020164
-0.180804,-0.067832,1.017480
-0.156160,-0.087596,1.013088
-0.177876,-0.056120,1.018700
-0.191296,-0.046848,1.019920
-0.193004,-0.050020,1.018456
-0.185196,-0.057096,1.017968
-0.174948,-0.063196,1.016260
-0.165676,-0.066124,1.016748
-0.161040,-0.068564,1.015528
-0.158600,-0.074176,1.014064
-0.154452,-0.080032,1.005280
-0.148596,-0.088572,1.001620
-0.145180,-0.091988,1.000400
-0.137616,-0.095892,0.996740
-0.132736,-0.105408,0.995764
-0.130784,-0.108092,0.989908
-0.139812,-0.084912,0.996252
-0.143960,-0.080276,1.000400
-0.147620,-0.083448,1.003084
-0.149572,-0.088816,1.008696
-0.155916,-0.086132,1.007232
-0.165676,-0.081252,1.010160
-0.173484,-0.079300,1.012112
-0.179096,-0.073688,1.005768
-0.182756,-0.068808,1.002596
-0.178364,-0.074420,1.002840
-0.168848,-0.080032,1.003816
-0.166408,-0.077104,0.998692
-0.168848,-0.086620,0.996252
-0.169092,-0.091988,0.995032
-0.165432,-0.093696,0.992836
-0.162992,-0.094184,0.997716
-0.166164,-0.089548,1.000156
-0.173484,-0.077348,1.000888
-0.180560,-0.086620,1.003328
-0.183976,-0.095160,1.005524
-0.192272,-0.099552,1.006744
-0.185440,-0.104920,1.007232
-0.163480,-0.107360,1.009184
-0.168116,-0.110532,1.000400
-0.166652,-0.108580,0.997228
-0.167384,-0.099308,0.997716
-0.170068,-0.095892,1.004060
-0.172996,-0.094184,1.000400
-0.173240,-0.094184,1.001620
-0.169092,-0.093452,1.000400
-0.170556,-0.096868,1.002596
-0.172020,-0.100528,1.000156
-0.167140,-0.101504,0.996496
-0.163236,-0.100772,0.995520
-0.154696,-0.102968,0.992348
-0.148108,-0.107604,0.987468
-0.139080,-0.107116,0.983808
-0.130052,-0.114192,0.980636
-0.114680,-0.121512,0.970144
-0.121268,-0.106872,0.969656
-0.131760,-0.098332,0.973316
-0.137372,-0.087352,0.972828
-0.135664,-0.090280,0.973316
-0.127124,-0.101748,0.976488
-0.120536,-0.099796,0.973560
-0.118340,-0.099552,0.978196
-0.114924,-0.093940,0.974780
-0.113216,-0.086864,0.973560
-0.112240,-0.082960,0.972096
-0.108580,-0.082716,0.971120
-0.107848,-0.082716,0.968680
-0.109556,-0.085644,0.962336
-0.098576,-0.091744,0.959164
-0.100040,-0.092232,0.954772
-0.102724,-0.090036,0.955748
-0.104920,-0.092232,0.954528
-0.104920,-0.098332,0.950868
-0.105652,-0.103212,0.947208
-0.110776,-0.100772,0.946720
-0.117120,-0.099308,0.948428
-0.117364,-0.108336,0.945256
-0.115900,-0.105164,0.946476
-0.115656,-0.102968,0.945988
-0.119804,-0.100528,0.941840
-0.121024,-0.100040,0.939888
-0.119072,-0.099796,0.936228
-0.087840,-0.098820,0.935984
-0.099064,-0.093452,0.931348
-0.097844,-0.086864,0.926224
-0.102480,-0.082228,0.929152
-0.103456,-0.078324,0.930372
-0.105164,-0.077592,0.931592
-0.105164,-0.076860,0.934276
-0.106872,-0.077836,0.927688
-0.111020,-0.081740,0.932568
-0.120048,-0.086864,0.944280
-0.108092,-0.090524,0.934520
-0.109312,-0.095648,0.931348
-0.114192,-0.101992,0.944280
-0.105652,-0.096868,0.936960
-0.115900,-0.098820,0.954040
-0.112972,-0.096136,0.944280
-0.123952,-0.093940,0.947208
-0.127124,-0.099308,0.953796
-0.128344,-0.099064,0.948184
-0.132736,-0.095404,0.957456
-0.141276,-0.089792,0.971852
-0.151524,-0.082960,0.981368
-0.169824,-0.071004,0.987712
-0.157624,-0.063684,0.994544
-0.127856,-0.054656,0.994544
-0.097844,-0.050020,0.993812
-0.076372,-0.044408,0.996740
-0.080032,-0.041968,0.994300
-0.074908,-0.066368,0.995764
-0.054168,-0.070516,0.996984
-0.043432,-0.056852,1.002596
-0.042944,-0.041724,1.003816
-0.041968,-0.037576,1.016260
-0.035380,-0.039040,1.029192
-0.030988,-0.038064,1.027484
-0.027816,-0.033672,1.026752
-0.023424,-0.046116,1.028704
-0.014152,-0.052460,1.037976
-0.005368,-0.054656,1.037732
-0.000732,-0.055876,1.037244
0.000000,-0.059780,1.033340
0.004392,-0.066612,1.036756
0.014152,-0.079300,1.031144
0.020496,-0.090768,1.033340
0.020252,-0.093208,1.036756
0.010248,-0.090280,1.038708
-0.001708,-0.090524,1.041880
-0.025376,-0.083448,1.065304
-0.049288,-0.074420,1.069208
-0.063440,-0.076860,1.084824
-0.069052,-0.078080,1.095560
-0.077104,-0.071980,1.106540
-0.086132,-0.065392,1.111908
-0.085400,-0.070272,1.112152
-0.045872,-0.067832,1.112640
-0.043432,-0.060756,1.112884
-0.056120,-0.052460,1.107028
-0.061244,-0.049776,1.098244
-0.069052,-0.040748,1.100440
-0.071736,-0.042212,1.104100
-0.072468,-0.042700,1.102880
-0.076616,-0.044164,1.105320
-0.078080,-0.045628,1.114104
-0.080032,-0.043676,1.119716
-0.078568,-0.040260,1.129720
-0.077836,-0.037332,1.126548
-0.072956,-0.031476,1.129720
-0.072468,-0.025376,1.132648
-0.068564,-0.019764,1.121424
-0.065636,0.009760,1.127280
-0.067588,0.050508,1.128012
-0.096136,-0.031232,1.121424
-0.108336,-0.030500,1.119228
-0.111996,-0.008052,1.121912
-0.111752,0.000244,1.128988
-0.107116,-0.007564,1.131672
-0.106872,-0.007808,1.137528
-0.116876,0.016592,1.137528
-0.118584,0.032208,1.139724
-0.136640,0.054168,1.149728
-0.164212,0.071248,1.156804
-0.184708,0.087840,1.166564
-0.200080,0.101260,1.186084
-0.215208,0.120536,1.188524
-0.223992,0.131760,1.195600
-0.189588,0.121268,1.192184
-0.201544,0.123220,1.191940
-0.231556,0.136640,1.190476
-0.275964,0.145180,1.189744
-0.376004,0.160796,1.171932
-0.356240,0.152988,1.175348
-0.323300,0.135176,1.169492
-0.239852,0.118584,1.172664
-0.212280,0.121024,1.149728
-0.247416,0.136884,1.140700
-0.311588,0.139324,1.101904
-0.356728,0.142496,1.038464
-0.370880,0.114680,1.031388
-0.365268,0.094428,1.026996
-0.342820,0.074420,1.004548
-0.325008,0.068808,0.989908
-0.309636,0.073932,0.953308
-0.285724,0.065636,0.923296
-0.241804,0.082472,0.886452
-0.227164,0.089792,0.890356
-0.224968,0.075396,0.880596
-0.234240,0.058804,0.857660
-0.246684,0.055632,0.830576
-0.257908,0.067100,0.824964
-0.266204,0.078812,0.836188
-0.272548,0.089548,0.845460
-0.279136,0.104432,0.854976
-0.282308,0.111996,0.853512
-0.285724,0.111752,0.862052
-0.282796,0.109312,0.864736
-0.271816,0.107848,0.870592
-0.264252,0.116388,0.879864
-0.271572,0.118828,0.887184
-0.271084,0.116876,0.890112
-0.279380,0.120780,0.907192
-0.288896,0.123708,0.910608
-0.307928,0.116876,0.919392
-0.306220,0.098332,0.926468
-0.298900,0.094916,0.926224
-0.285236,0.091500,0.928664
-0.273036,0.087840,0.926224
-0.257664,0.085888,0.927932
-0.240584,0.086864,0.918660
-0.222528,0.082472,0.914268
-0.205448,0.079788,0.909632
-0.184952,0.074420,0.907924
-0.164944,0.069784,0.902312
-0.144204,0.064416,0.897432
-0.122732,0.063196,0.889868
-0.102236,0.058072,0.893772
-0.084424,0.058560,0.885476
-0.073200,0.056364,0.889136
-0.058560,0.058316,0.886452
-0.038308,0.058804,0.887184
-0.026596,0.060756,0.884988
-0.021960,0.059780,0.893284
-0.016592,0.059780,0.891332
-0.010492,0.061732,0.893040
-0.007320,0.065636,0.897920
-0.007564,0.068564,0.901580
-0.006344,0.070760,0.900848
-0.006100,0.072468,0.893528
-0.008784,0.071492,0.894260
-0.009028,0.069052,0.892308
-0.012444,0.069784,0.892064
-0.016348,0.064172,0.894260
-0.018544,0.063440,0.894504
-0.027328,0.063684,0.895968
-0.032696,0.061732,0.884012
-0.058316,0.052216,0.897432
-0.072712,0.048556,0.896700
-0.073444,0.033428,0.906216
-0.066612,0.035380,0.887184
-0.055876,0.031964,0.896700
-0.049044,0.035136,0.891088
-0.040748,0.035380,0.892552
-0.042700,0.032696,0.886208
-0.057584,0.034160,0.888160
-0.086620,0.036112,0.885476
-0.079544,0.038552,0.890844
-0.086864,0.039284,0.892796
-0.086620,0.035624,0.902800
-0.091012,0.035380,0.900604
-0.092964,0.038796,0.905484
-0.098088,0.041724,0.907192
-0.102236,0.045628,0.910608
-0.105164,0.045872,0.916708
-0.106140,0.040748,0.924516
-0.101260,0.038064,0.927444
-0.101748,0.031476,0.927200
-0.101016,0.024400,0.931836
-0.104676,0.014884,0.950136
-0.100284,0.022936,0.943304
-0.101260,0.011468,0.939888
-0.100528,0.006832,0.939888
-0.105164,-0.003660,0.950868
-0.103944,-0.009272,0.957212
-0.103212,-0.011712,0.962824
-0.098088,-0.014152,0.964288
-0.097356,-0.016836,0.974048
-0.094184,-0.016348,0.981368
-0.087108,-0.014152,0.983076
-0.091012,-0.011468,0.983808
-0.090036,-0.012688,0.983808
-0.083692,-0.013176,0.977464
-0.075152,-0.019276,0.981612
-0.064660,-0.026840,0.977952
-0.055876,-0.040016,0.978684
-0.050752,-0.051484,0.975756
-0.050752,-0.051240,0.979172
-0.053924,-0.051240,0.987468
-0.062952,-0.053192,0.992348
-0.070272,-0.119804,1.000156
-0.068076,-0.079056,1.001376
-0.069784,-0.082228,1.002840
-0.069052,-0.083692,1.014552
-0.072224,-0.069540,1.019676
-0.060024,-0.078080,1.029192
-0.059780,-0.093940,1.032852
-0.070760,-0.091744,1.047492
-0.076372,-0.084424,1.054812
-0.085156,-0.078324,1.061400
-0.096136,-0.074420,1.072624
-0.108824,-0.072468,1.087996
-0.137372,-0.079300,1.091412
-0.150792,-0.085400,1.096292
-0.163480,-0.089792,1.100440
-0.177388,-0.087840,1.104588
-0.191540,-0.093940,1.116788
-0.215940,-0.089060,1.125328
-0.216672,-0.078812,1.136552
-0.207156,-0.066612,1.140456
-0.200568,-0.067100,1.148020
-0.202032,-0.074908,1.148264
-0.204472,-0.072468,1.150216
-0.196664,-0.073444,1.151924
-0.197396,-0.076128,1.148752
-0.192760,-0.075396,1.144360
-0.193248,-0.083692,1.138992
-0.190808,-0.087352,1.139236
-0.172020,-0.096136,1.134112
-0.148596,-0.111752,1.136552
-0.137128,-0.119804,1.141432
-0.130784,-0.120536,1.143628
-0.131760,-0.115900,1.148752
-0.147620,-0.107360,1.161440
-0.171776,-0.094184,1.184620
-0.212524,-0.070516,1.193160
-0.221796,-0.058316,1.208288
-0.233752,-0.049044,1.206824
-0.254980,-0.033672,1.235372
-0.297192,-0.008540,1.253672
-0.345504,0.000976,1.274412
-0.393084,0.010248,1.280024
-0.432856,0.012688,1.296128
-0.473848,0.013664,1.299544
-0.503372,0.009272,1.297348
-0.520208,0.004636,1.289296
-0.531920,-0.001952,1.280268
-0.559248,-0.017080,1.263920
-0.563640,-0.033672,1.228296
-0.540948,-0.072956,1.188036
-0.517280,-0.088084,1.156560
-0.485804,-0.096868,1.129476
-0.442616,-0.100040,1.085068
-0.357948,-0.094428,1.047004
-0.226188,-0.067588,1.016992
-0.208132,-0.059536,0.979660
-0.255224,-0.080276,0.920368
-0.287920,-0.098576,0.891332
-0.286700,-0.103456,0.871568
-0.266936,-0.107116,0.859124
-0.249368,-0.107604,0.837896
-0.244488,-0.099796,0.810324
-0.260836,-0.087352,0.813984
-0.244244,-0.077104,0.814960
-0.179584,-0.064172,0.825696
-0.205692,-0.054900,0.822036
-0.217892,-0.048800,0.838384
-0.228628,-0.039284,0.843264
-0.239608,-0.031476,0.857904
-0.248636,-0.023668,0.869128
-0.257176,-0.015372,0.875716
-0.264252,-0.007076,0.886940
-0.264496,-0.001220,0.898164
-0.261080,0.000244,0.898408
-0.257420,0.003904,0.901336
-0.239608,0.000488,0.907436
-0.229116,-0.002684,0.907192
-0.215696,-0.010004,0.907192
-0.199104,-0.013420,0.908412
-0.182024,-0.017812,0.908900
-0.169336,-0.020008,0.904752
-0.149572,-0.023180,0.902312
-0.124928,-0.023912,0.901824
-0.098332,-0.028548,0.896700
-0.085156,-0.025864,0.890356
-0.081252,-0.019276,0.886452
-0.080520,-0.010736,0.877912
-0.067832,-0.008540,0.869128
-0.057340,-0.010980,0.857660
-0.046604,-0.013908,0.846924
-0.031476,-0.025376,0.843020
-0.024400,-0.024400,0.836432
-0.020252,-0.026108,0.835944
-0.022448,-0.027572,0.849364
-0.030256,-0.009272,0.801540
-0.043920,-0.020984,0.832284
-0.049044,-0.018788,0.823744
-0.060756,-0.021228,0.816912
-0.072224,-0.019764,0.813740
-0.080276,-0.037576,0.826916
-0.097600,-0.054656,0.835456
-0.113216,-0.051728,0.845216
-0.135176,-0.048312,0.860344
-0.152256,-0.047580,0.866688
-0.146644,-0.049776,0.881572
-0.155428,-0.042944,0.889868
-0.165676,-0.036356,0.900116
-0.172752,-0.027816,0.912072
-0.179340,-0.021960,0.918904
-0.183000,-0.015128,0.926468
-0.187392,-0.009272,0.933056
-0.187880,-0.004880,0.939156
-0.186660,-0.003172,0.943792
-0.182024,-0.003904,0.949160
-0.175680,-0.006588,0.954284
-0.168116,-0.010736,0.952820
-0.150304,-0.018056,0.947208
-0.106384,-0.024156,0.951844
-0.071004,-0.037332,0.945012
-0.077104,-0.051240,0.940864
-0.116388,-0.052704,0.932812
-0.146156,-0.054900,0.940376
-0.152744,-0.047824,0.939644
-0.135908,-0.055632,0.940132
-0.119560,-0.057340,0.947940
-0.110288,-0.059780,0.946476
-0.114680,-0.052704,0.941108
-0.109068,-0.045628,0.936228
-0.074664,-0.054168,0.936228
-0.076616,-0.050996,0.928176
-0.072956,-0.049288,0.929640
-0.068808,-0.046604,0.925736
-0.061488,-0.049044,0.925980
-0.055632,-0.053436,0.927444
-0.049288,-0.061244,0.931348
-0.041724,-0.065636,0.935496
-0.036600,-0.070028,0.943548
-0.030744,-0.070760,0.950868
-0.026352,-0.068808,0.960872
-0.025376,-0.069052,0.975024
-0.021228,-0.068076,0.991128
-0.020252,-0.069052,0.989176
-0.022204,-0.069540,1.000400
-0.022204,-0.073444,1.002352
-0.022448,-0.079544,1.010648
-0.021228,-0.081008,1.017236
-0.021228,-0.084424,1.025532
-0.023912,-0.083204,1.037000
-0.022936,-0.081496,1.041148
-0.030256,-0.078080,1.050420
-0.032208,-0.076616,1.063840
-0.044652,-0.070272,1.077016
-0.052704,-0.068808,1.080188
-0.056852,-0.069296,1.087020
-0.062464,-0.068564,1.098976
-0.068320,-0.067588,1.105564
-0.071492,-0.066856,1.110444
-0.075884,-0.065392,1.116788
-0.078080,-0.065148,1.128256
-0.082228,-0.061000,1.136796
-0.084180,-0.063196,1.137040
-0.085400,-0.063196,1.141676
-0.090036,-0.064904,1.144604
-0.098332,-0.062464,1.150948
-0.102236,-0.059780,1.156560
-0.106872,-0.062708,1.166076
-0.109068,-0.056852,1.167052
-0.116144,-0.051972,1.176568
-0.120780,-0.036844,1.187548
-0.183000,0.061244,1.194136
-0.209840,0.110532,1.226100
-0.180560,0.005856,1.253672
-0.143472,-0.117120,1.221952
-0.117120,-0.122244,1.220732
-0.153720,-0.017324,1.255624
-0.219844,0.039528,1.271240
-0.281576,0.028304,1.261724
-0.276208,0.008540,1.266604
-0.260592,0.003416,1.272948
-0.281332,0.027328,1.281732
-0.341600,0.054412,1.296372
-0.463112,0.095404,1.310280
-0.488976,0.067344,1.313696
-0.532164,0.038552,1.328824
-0.582184,0.013420,1.302960
-0.606096,0.010004,1.312476
-0.571692,0.028060,1.321016
-0.504104,0.023180,1.311500
-0.442616,0.002684,1.291004
-0.495808,-0.004880,1.269776
-0.486292,0.013420,1.147776
-0.238876,0.105164,1.132892
-0.190076,0.036600,1.073844
-0.204716,-0.076128,1.037732
-0.242536,-0.110532,1.003816
-0.258884,-0.086132,0.964288
-0.247416,-0.056364,0.940376
-0.214232,-0.041236,0.925248
-0.172508,-0.065392,0.882060
-0.133468,-0.098820,0.870104
-0.104188,-0.099308,0.863272
-0.092720,-0.088084,0.846192
-0.093940,-0.091500,0.837408
-0.100528,-0.111508,0.848388
-0.107848,-0.031964,0.864980
-0.164700,-0.066368,0.856196
-0.223504,-0.112728,0.875960
-0.269376,-0.104432,0.881816
-0.294752,-0.072468,0.901336
-0.298656,-0.034404,0.917440
-0.275964,-0.008540,0.919392
-0.254004,-0.023912,0.925004
-0.269376,-0.040992,0.929152
-0.305244,-0.040748,0.922564
-0.344528,-0.040504,0.933788
-0.350628,-0.081252,0.916952
-0.327204,-0.089548,0.923784
-0.278404,-0.114924,0.935984
-0.247904,-0.099064,0.883524
-0.250100,-0.089304,0.915488
-0.266936,-0.063440,0.899872
-0.277916,-0.048068,0.889624
-0.272060,-0.055876,0.868640
-0.242292,-0.072224,0.877912
-0.211304,-0.078568,0.861320
-0.189344,-0.081740,0.851316
-0.183732,-0.080032,0.838628
-0.186416,-0.078324,0.824232
-0.181048,-0.084180,0.798856
-0.129320,-0.073932,0.793000
-0.119804,-0.074176,0.788364
-0.114924,-0.070516,0.776896
-0.112484,-0.071980,0.776896
-0.108336,-0.071492,0.774700
-0.111996,-0.069784,0.781288
-0.108824,-0.076616,0.780556
-0.109312,-0.082716,0.782996
-0.106872,-0.088572,0.783240
-0.090524,-0.095648,0.781044
-0.069052,-0.109800,0.811300
-0.055632,-0.105652,0.790316
-0.069052,-0.114192,0.813008
-0.138104,-0.097112,0.825696
-0.161284,-0.094672,0.822768
-0.170556,-0.093452,0.841312
-0.175680,-0.089548,0.844484
-0.181536,-0.085888,0.858636
-0.190808,-0.078080,0.866688
-0.192272,-0.066856,0.866444
-0.187880,-0.060024,0.872056
-0.168116,-0.072224,0.875716
-0.176412,-0.074176,0.879620
-0.177388,-0.069052,0.884500
-0.180316,-0.061976,0.895480
-0.179584,-0.057584,0.904264
-0.177388,-0.057584,0.911828
-0.172752,-0.064172,0.917684
-0.162992,-0.067344,0.920856
-0.158600,-0.065880,0.922320
-0.155672,-0.058804,0.924760
-0.159820,-0.052704,0.925980
-0.161772,-0.050996,0.928420
-0.163236,-0.048556,0.929640
-0.163968,-0.044408,0.932812
-0.162504,-0.041480,0.933056
-0.159820,-0.040748,0.938180
-0.154696,-0.036112,0.939644
-0.140788,-0.030256,0.947452
-0.134688,-0.024644,0.949892
-0.132980,-0.021472,0.948916
-0.128100,-0.017324,0.947452
-0.124684,-0.017080,0.955016
-0.119804,-0.016104,0.954284
-0.119560,-0.016348,0.959164
-0.114924,-0.017568,0.963068
-0.111996,-0.015616,0.967948
-0.111264,-0.015128,0.974292
-0.107360,-0.012200,0.974048
-0.112728,-0.012932,0.981368
-0.117852,-0.006588,0.989176
-0.122488,-0.006588,0.994056
-0.124928,-0.005856,0.991372
-0.128832,-0.006588,0.998692
-0.129564,-0.002684,1.001376
-0.132248,-0.000976,1.009672
-0.131272,0.003904,1.016260
-0.131760,0.009516,1.021628
-0.131272,0.010980,1.024068
-0.131028,0.014884,1.028948
-0.126880,0.015128,1.032120
-0.127124,0.018544,1.035048
-0.126392,0.019520,1.035292
-0.125660,0.022692,1.041392
-0.119804,0.024644,1.047492
-0.121024,0.020252,1.049444
-0.121512,0.014640,1.049688
-0.125660,0.010492,1.051884
-0.132248,0.008784,1.050664
-0.141032,0.006832,1.050908
-0.144936,0.005856,1.049932
-0.156648,0.000244,1.053592
-0.165432,-0.002440,1.057984
-0.175436,-0.008296,1.065548
-0.186660,-0.018300,1.070672
-0.209352,-0.031964,1.072624
-0.244488,-0.052704,1.080188
-0.257908,-0.061488,1.096048
-0.223992,-0.038308,1.104100
-0.207888,-0.030744,1.110932
-0.210816,-0.031476,1.113372
-0.220332,-0.021228,1.113128
-0.224968,-0.009272,1.127280
-0.225456,0.002196,1.137772
-0.206668,0.020984,1.153632
-0.192028,0.036600,1.160220
-0.175436,0.045140,1.185840
-0.214964,0.074908,1.209752
-0.267912,0.100772,1.222440
-0.318176,0.124440,1.234152
-0.361120,0.134200,1.251476
-0.396988,0.139324,1.254404
-0.416264,0.129808,1.266360
-0.431392,0.116388,1.269776
-0.445056,0.091012,1.272948
-0.504348,0.051240,1.262212
-0.502640,0.029524,1.245376
-0.499224,0.007076,1.232200
-0.483364,-0.009272,1.208776
-0.468480,-0.030744,1.174616
-0.445056,-0.040504,1.144604
-0.424072,-0.041968,1.092876
-0.391376,-0.045384,1.049444
-0.356728,-0.058560,1.042124
-0.317200,-0.057096,1.003084
-0.294264,-0.064172,0.987468
-0.264740,-0.066856,0.945744
-0.213256,-0.065392,0.934032
-0.203008,-0.065636,0.924272
-0.215940,-0.070760,0.915488
-0.214476,-0.067100,0.907680
-0.198128,-0.059048,0.901092
-0.211792,-0.048068,0.902068
-0.219600,-0.038796,0.911584
-0.239852,-0.026840,0.925980
-0.250344,-0.018300,0.945012
-0.271816,-0.011712,0.940620
-0.283528,-0.003416,0.952088
-0.303292,-0.000244,0.960628
-0.309148,0.010248,0.978928
-0.323056,0.021716,0.985516
-0.325008,0.026840,0.986980
-0.323056,0.028060,0.986492
-0.317688,0.025376,0.986248
-0.310612,0.023180,0.982344
-0.297192,0.019032,0.979660
-0.284504,0.016104,0.976732
-0.266692,0.010492,0.965996
-0.249368,0.003904,0.956480
-0.230824,-0.000732,0.948672
-0.210084,-0.002196,0.940620
-0.188856,-0.006344,0.924028
-0.163480,-0.011468,0.922076
-0.078568,-0.029524,0.905972
-0.001464,-0.037576,0.890600
-0.045628,-0.003172,0.887428
-0.102968,0.034160,0.873520
-0.146888,0.005856,0.861320
-0.122976,-0.025376,0.862540
-0.091012,-0.029524,0.856684
-0.064172,-0.035624,0.859368
-0.059292,-0.043676,0.864004
-0.076372,-0.029524,0.843508
-0.091500,-0.029524,0.850584
-0.099064,-0.019520,0.860588
-0.097600,-0.015128,0.855952
-0.096380,-0.010980,0.844972
-0.094672,-0.008784,0.865224
-0.109800,-0.003172,0.878156
-0.107604,-0.001464,0.884744
-0.102236,0.001464,0.891332
-0.119072,0.006832,0.901824
-0.126148,0.015860,0.914268
-0.134688,0.023424,0.923296
-0.144204,0.030256,0.937448
-0.149572,0.037088,0.948428
-0.154696,0.039284,0.956480
-0.152744,0.041236,0.961848
-0.153476,0.040016,0.971608
-0.150304,0.037332,0.972584
-0.123464,0.030012,0.975024
-0.050264,0.012932,0.977952
-0.004636,0.017568,0.981856
-0.079788,0.054168,0.986248
-0.113216,0.047092,0.985272
-0.145912,0.039284,0.982832
-0.150304,0.031232,0.985516
-0.126148,0.018788,0.996252
-0.116388,0.013908,0.979660
-0.143472,0.005856,1.004060
-0.136152,0.010248,0.977952
-0.083448,0.003416,0.989664
-0.043432,0.005124,0.979660
-0.034648,0.005856,0.979660
-0.020008,0.017568,0.964288
0.000000,0.023668,0.969168
0.017324,0.029524,0.962580
0.024644,0.026596,0.959896
0.022204,0.018300,0.954040
0.017568,0.006832,0.955260
0.016104,-0.007320,0.959408
-0.002440,-0.034404,0.965264
-0.012688,-0.042456,0.971608
-0.017324,-0.045628,0.981612
-0.027084,-0.042944,0.989908
-0.029524,-0.041968,0.998204
-0.030256,-0.044652,1.000644
-0.027084,-0.042212,1.006500
-0.007564,-0.039528,1.016748
0.002440,-0.032696,1.024556
-0.001708,-0.025620,1.032852
-0.003416,-0.022204,1.039196
-0.006100,-0.018056,1.047004
-0.009760,-0.010980,1.056276
-0.016592,-0.005124,1.065060
-0.018544,-0.006100,1.062620
-0.020740,-0.008784,1.065548
-0.017324,-0.011224,1.069940
-0.012200,-0.016348,1.068476
0.010492,-0.021472,1.073112
0.040504,-0.022936,1.074576
0.037332,-0.028060,1.080920
0.009516,-0.019764,1.080920
-0.011468,-0.010492,1.081652
-0.033672,-0.006832,1.086288
-0.044896,-0.011224,1.095560
-0.054412,-0.012688,1.101416
-0.061732,-0.019032,1.101904
-0.019764,-0.023668,1.105564
-0.041968,-0.019276,1.104344
-0.045872,-0.010004,1.100440
-0.055876,-0.000976,1.099708
-0.063928,0.002928,1.102880
-0.073444,0.005856,1.106784
-0.079544,0.002440,1.105320
-0.083204,-0.003416,1.111420
-0.086132,-0.010980,1.121180
-0.086376,-0.018300,1.131916
-0.088084,-0.021472,1.138748
-0.086132,-0.017568,1.143872
-0.087108,-0.006344,1.144116
-0.092232,-0.000488,1.145824
-0.097600,0.005612,1.139968
-0.162504,0.094916,1.151924
-0.212524,0.101016,1.157048
-0.153232,-0.056364,1.148020
-0.109068,-0.047092,1.139480
-0.122732,-0.004880,1.157536
-0.154452,0.004392,1.166564
-0.184952,0.014884,1.171444
-0.185440,0.016592,1.173152
-0.185440,0.027084,1.177300
-0.224236,0.040016,1.186572
-0.277428,0.057340,1.185108
-0.318908,0.066124,1.189012
-0.355508,0.079300,1.198528
-0.421144,0.092720,1.222928
-0.429196,0.126636,1.212192
-0.420168,0.155184,1.207800
-0.399916,0.165432,1.184620
-0.362096,0.162992,1.171932
-0.346724,0.147620,1.152412
-0.298168,0.113948,1.126304
-0.236680,0.060024,1.091900
-0.244732,0.048312,1.065304
-0.297680,0.070028,1.035048
-0.296216,0.113216,1.037244
-0.252784,0.080764,1.016260
-0.235704,0.034892,0.985516
-0.247172,0.004880,0.958188
-0.261324,-0.000488,0.943548
-0.259616,0.007808,0.916952
-0.221308,0.039284,0.904020
-0.215208,0.031964,0.894016
-0.215208,0.003416,0.883768
-0.211792,-0.001952,0.863028
-0.208132,0.001952,0.852536
-0.210084,0.011468,0.850584
-0.234240,0.029036,0.844972
-0.244976,0.021960,0.846192
-0.254492,0.011712,0.846924
-0.261812,0.003904,0.860344
-0.268156,-0.003172,0.874984
-0.280356,-0.000976,0.878400
-0.285724,-0.001220,0.900360
-0.291336,-0.005368,0.907436
-0.297436,-0.005612,0.914024
-0.294508,-0.005368,0.915000
-0.293776,-0.007808,0.923052
-0.279868,-0.014152,0.915000
-0.245220,-0.040992,0.915244
-0.196420,-0.067832,0.905240
-0.191784,-0.040504,0.902556
-0.203252,-0.013908,0.907680
-0.214720,-0.005856,0.900116
-0.206668,-0.029280,0.892308
-0.206912,-0.035868,0.901336
-0.208864,-0.014396,0.896212
-0.164700,-0.060024,0.877912
-0.150548,-0.057584,0.874984
-0.134200,-0.066856,0.860100
-0.101748,-0.070760,0.867664
-0.090280,-0.061732,0.860588
-0.091256,-0.062464,0.856684
-0.094672,-0.063440,0.854976
-0.092720,-0.062220,0.846924
-0.085644,-0.063196,0.847412
-0.067588,-0.062464,0.848388
-0.017080,-0.067344,0.853512
-0.020008,-0.003416,0.857660
-0.033916,-0.055388,0.855708
-0.041236,-0.050508,0.863760
-0.052216,-0.045628,0.871080
-0.060024,-0.043432,0.878156
-0.066368,-0.039284,0.887672
-0.073200,-0.036844,0.894504
-0.074420,-0.035624,0.902556
-0.072956,-0.038552,0.910120
-0.074420,-0.039040,0.912316
-0.072712,-0.040992,0.904020
-0.090036,-0.043676,0.940376
-0.077836,-0.045872,0.908900
-0.084912,-0.047824,0.932568
-0.075640,-0.048800,0.936716
-0.077592,-0.050508,0.921832
-0.079788,-0.053192,0.930372
-0.079300,-0.054412,0.923784
-0.078080,-0.058560,0.925492
-0.081252,-0.060024,0.924516
-0.082716,-0.064660,0.921588
-0.084424,-0.065636,0.917196
-0.083204,-0.069296,0.916952
-0.083936,-0.069784,0.915732
-0.081252,-0.070516,0.914512
-0.081984,-0.073932,0.913536
-0.080276,-0.079544,0.912316
-0.082716,-0.081252,0.912072
-0.083692,-0.081008,0.911584
-0.088572,-0.081740,0.913048
-0.088816,-0.078080,0.916220
-0.095648,-0.074176,0.921832
-0.096868,-0.070028,0.921832
-0.099308,-0.067344,0.927688
-0.101260,-0.067832,0.933300
-0.103944,-0.066124,0.938668
-0.102480,-0.069784,0.940620
-0.100528,-0.070516,0.947696
-0.097844,-0.069296,0.953064
-0.096380,-0.067588,0.957456
-0.096136,-0.062220,0.962580
-0.097356,-0.060756,0.966972
-0.097356,-0.057096,0.969412
-0.101016,-0.058560,0.973316
-0.101016,-0.062220,0.979416
-0.101748,-0.064416,0.987712
-0.103944,-0.068320,0.996008
-0.105408,-0.069296,0.999668
-0.106872,-0.066856,1.010892
-0.110776,-0.069296,1.019920
-0.112484,-0.066124,1.026752
-0.115656,-0.064660,1.037244
-0.119072,-0.063196,1.045052
-0.124440,-0.060756,1.056764
-0.130296,-0.060024,1.066280
-0.141520,-0.061976,1.072624
-0.180316,-0.091500,1.072624
-0.229848,-0.118340,1.070184
-0.190320,-0.058072,1.088972
-0.126636,-0.030256,1.109468
-0.130296,-0.048312,1.102148
-0.163724,-0.064904,1.097268
-0.181292,-0.063928,1.099952
-0.181780,-0.057828,1.105808
-0.174460,-0.058560,1.105320
-0.178120,-0.063928,1.105808
-0.182756,-0.067344,1.108980
-0.187148,-0.067588,1.112884
-0.187148,-0.066368,1.117276
-0.189100,-0.064660,1.118252
-0.190808,-0.062952,1.123864
-0.187392,-0.062220,1.131916
-0.182024,-0.059292,1.151436
-0.176656,-0.057340,1.156072
-0.160552,-0.049776,1.166564
-0.155916,-0.047824,1.182424
-0.168116,-0.040504,1.192184
-0.190808,-0.037088,1.205604
-0.210328,-0.030256,1.220244
-0.217648,-0.028304,1.234152
-0.245464,-0.035380,1.245376
-0.290604,-0.038552,1.251232
-0.332328,-0.044896,1.247572
-0.360876,-0.048068,1.246108
-0.396988,-0.057096,1.237812
-0.409920,-0.058072,1.223660
-0.421144,-0.060268,1.211704
-0.413580,-0.064660,1.192184
-0.388936,-0.066368,1.171688
-0.363316,-0.074664,1.138260
-0.345016,-0.070516,1.098976
-0.345992,-0.077348,1.066524
-0.310368,-0.084668,1.039684
-0.274988,-0.092964,1.016016
-0.237900,-0.099796,0.980636
-0.089792,0.053192,0.946964
-0.094184,-0.039528,0.957944
-0.150792,-0.167872,0.948916
-0.200812,-0.182512,0.877668
-0.200812,-0.139324,0.855952
-0.165676,-0.119072,0.863516
-0.132492,-0.084912,0.878888
-0.155428,-0.069540,0.869616
-0.173972,-0.076616,0.867908
-0.191296,-0.079544,0.874252
-0.206424,-0.085400,0.900116
-0.246196,-0.074176,0.901824
-0.263032,-0.073444,0.910120
-0.278160,-0.070028,0.916708
-0.286456,-0.074420,0.927200
-0.295484,-0.085400,0.938424
-0.298412,-0.072468,0.939400
-0.302560,-0.048556,0.956480
-0.306464,-0.042700,0.956968
-0.303292,-0.051972,0.955260
-0.291580,-0.067588,0.953064
-0.260592,-0.068808,0.950380
-0.245952,-0.068808,0.945988
-0.239364,-0.064172,0.943060
-0.236680,-0.066124,0.933544
-0.236924,-0.069540,0.919392
-0.244976,-0.060268,0.908900
-0.243268,-0.070028,0.902068
-0.235948,-0.079056,0.897188
-0.225944,-0.083692,0.885964
-0.226920,-0.080520,0.878156
-0.220576,-0.083936,0.870104
-0.206912,-0.091256,0.874740
-0.174948,-0.089792,0.844972
-0.158112,-0.087596,0.818864
-0.140544,-0.090280,0.817156
-0.125172,-0.091012,0.799344
-0.115656,-0.091256,0.805444
-0.116144,-0.086864,0.791292
-0.116876,-0.085400,0.793244
-0.119560,-0.082228,0.789340
-0.125660,-0.085400,0.791292
-0.133712,-0.085644,0.797880
-0.142252,-0.088572,0.806664
-0.152744,-0.092476,0.809348
-0.157136,-0.095404,0.826428
-0.147132,-0.109312,0.837896
-0.152012,-0.109800,0.849120
-0.156404,-0.103944,0.858392
-0.156404,-0.099552,0.850584
-0.161040,-0.096624,0.891576
-0.170556,-0.099064,0.876204
-0.175436,-0.102968,0.904264
-0.169092,-0.098820,0.896944
-0.174216,-0.098088,0.906460
-0.179096,-0.098088,0.908900
-0.176412,-0.095160,0.921100
-0.181780,-0.095648,0.922564
-0.179828,-0.092964,0.926956
-0.181048,-0.091500,0.927932
-0.175924,-0.091500,0.929884
-0.172508,-0.094916,0.930860
-0.165432,-0.095648,0.925980
-0.158112,-0.098332,0.930372
-0.145668,-0.101260,0.930860
-0.126636,-0.111996,0.930128
-0.110288,-0.121756,0.925004
-0.115412,-0.112972,0.923540
-0.126392,-0.095648,0.928420
-0.136396,-0.084912,0.932568
-0.138348,-0.085644,0.932080
-0.129808,-0.091500,0.936960
-0.124928,-0.096136,0.947208
-0.103456,-0.108824,0.952576
-0.092232,-0.106140,0.955992
-0.093696,-0.100040,0.967460
-0.094672,-0.090768,0.977708
-0.095892,-0.081984,0.985760
-0.099796,-0.076860,0.990152
-0.104432,-0.074176,0.996252
-0.107360,-0.073200,1.000888
-0.113948,-0.073200,1.000888
-0.119072,-0.074420,1.029436
-0.124684,-0.073200,1.037000
-0.131028,-0.070272,1.047980
-0.137860,-0.067344,1.058228
-0.146644,-0.061976,1.065060
-0.154208,-0.057584,1.067012
-0.174948,-0.052704,1.071892
-0.211792,-0.052948,1.075064
-0.239364,-0.051240,1.079944
-0.226188,-0.043188,1.089460
-0.195200,-0.037820,1.101172
-0.169824,-0.035868,1.107516
-0.159576,-0.036112,1.107272
-0.159820,-0.031720,1.116056
-0.184708,-0.024400,1.113616
-0.184708,-0.020984,1.113372
-0.172264,-0.032696,1.113372
-0.145424,-0.048068,1.115080
-0.129076,-0.055144,1.120936
-0.164212,-0.041724,1.124596
-0.182756,-0.038552,1.126792
-0.175436,-0.043432,1.128744
-0.169824,-0.050264,1.134356
-0.158356,-0.056364,1.132160
-0.152012,-0.059292,1.136796
-0.142984,-0.046604,1.126060
-0.126880,-0.034404,1.125084
-0.073200,0.043188,1.136796
-0.090768,0.022448,1.137528
-0.175924,-0.102724,1.106540
-0.237412,-0.128100,1.091168
-0.222772,-0.105408,1.114836
-0.142984,-0.042700,1.152168
-0.151768,-0.047336,1.184864
-0.165920,-0.045628,1.199016
-0.224236,-0.049044,1.204628
-0.292312,-0.049288,1.195600
-0.280112,-0.035868,1.206092
-0.237168,0.013176,1.235128
-0.273524,0.031964,1.227076
-0.351604,0.049776,1.224636
-0.435296,0.060756,1.215364
-0.485804,0.062464,1.217804
-0.499956,0.052948,1.207312
-0.480680,0.043188,1.196088
-0.430660,0.035624,1.188036
-0.389668,0.030256,1.179008
-0.367708,0.035136,1.148752
-0.344528,0.051728,1.119960
-0.322812,0.091744,1.086532
-0.273768,0.101748,1.069452
-0.219600,0.096624,1.057496
-0.178120,0.060024,1.017724
-0.150792,0.026596,0.983564
-0.137616,0.011224,0.892308
-0.117852,0.014884,0.937448
-0.112484,0.020496,0.923784
-0.106140,0.018300,0.911584
-0.108336,0.025132,0.899872
-0.127612,0.044652,0.890600
-0.144692,0.027572,0.888160
-0.162504,0.017812,0.883524
-0.178120,0.004636,0.897432
-0.199348,0.007808,0.904264
-0.223016,0.013420,0.909632
-0.240584,0.015128,0.916952
-0.263276,0.011956,0.910364
-0.279136,0.011224,0.917928
-0.285236,0.015616,0.929396
-0.283284,0.019520,0.937204
-0.283040,0.019520,0.937692
-0.274988,0.010492,0.939156
-0.266936,0.005612,0.936472
-0.255224,-0.000244,0.930860
-0.240828,-0.006832,0.927200
-0.224480,-0.008052,0.919636
-0.205936,-0.011712,0.910364
-0.192028,-0.014152,0.901336
-0.174460,-0.018056,0.890112
-0.151280,-0.026352,0.876204
-0.102724,-0.072956,0.854976
-0.081252,-0.046848,0.843020
-0.111020,0.016348,0.844972
-0.124196,0.008052,0.825940
-0.081252,-0.039528,0.816912
-0.075884,-0.033428,0.812764
-0.078812,-0.037332,0.808372
-0.087108,-0.031964,0.807152
-0.095892,-0.033916,0.810812
-0.097600,-0.038552,0.825452
-0.099308,-0.029524,0.784704
-0.093452,-0.037088,0.825452
-0.094428,-0.029036,0.823256
-0.096624,-0.029524,0.821548
-0.066856,-0.043188,0.829600
-0.073688,-0.042456,0.830820
-0.080520,-0.038796,0.839848
-0.084668,-0.037576,0.844484
-0.091500,-0.037820,0.847412
-0.099796,-0.044652,0.855708
-0.098820,-0.049776,0.865468
-0.101504,-0.053680,0.878888
-0.101016,-0.052704,0.886696
-0.100040,-0.051240,0.908656
-0.098088,-0.040992,0.917196
-0.097844,-0.039772,0.923052
-0.100040,-0.038552,0.925492
-0.100284,-0.034648,0.932812
-0.104920,-0.031720,0.936960
-0.107360,-0.032208,0.937692
-0.106628,-0.032940,0.940132
-0.106872,-0.037332,0.942816
-0.102480,-0.046360,0.940620
-0.097844,-0.064172,0.953308
-0.082716,-0.065880,0.931104
-0.085156,-0.069540,0.947452
-0.063684,-0.068320,0.932080
-0.060268,-0.066124,0.939400
-0.046360,-0.062464,0.922808
-0.040748,-0.061732,0.925980
-0.037332,-0.059048,0.927444
-0.034648,-0.059048,0.928908
-0.034648,-0.060756,0.921100
-0.037332,-0.062220,0.925736
-0.039040,-0.061244,0.926956
-0.050508,-0.059292,0.931836
-0.059048,-0.061000,0.938668
-0.064172,-0.062952,0.946232
-0.071736,-0.065880,0.954772
-0.075884,-0.071492,0.963312
-0.080520,-0.077348,0.969656
-0.085888,-0.079544,0.979660
-0.090280,-0.079544,0.989176
-0.097356,-0.078812,0.995276
-0.106140,-0.081496,1.000400
-0.122244,-0.081008,1.006012
-0.133468,-0.078324,1.011624
-0.126880,-0.067588,1.020408
-0.112728,-0.059292,1.036756
-0.112484,-0.058804,1.042856
-0.117608,-0.062952,1.049200
-0.120292,-0.062464,1.056764
-0.126880,-0.066124,1.066524
-0.135664,-0.068320,1.074820
-0.148108,-0.069296,1.081896
-0.157868,-0.071980,1.087020
-0.166164,-0.069784,1.096780
-0.169336,-0.066612,1.108004
-0.171532,-0.063196,1.115568
-0.183488,-0.063684,1.118740
-0.189100,-0.065880,1.119960
-0.187636,-0.066612,1.121424
-0.181048,-0.069784,1.119228
-0.175680,-0.076860,1.113128
-0.170312,-0.081984,1.111908
-0.172264,-0.085400,1.106784
-0.169580,-0.088328,1.108980
-0.169824,-0.088572,1.103856
-0.174460,-0.087596,1.108004
-0.177388,-0.084424,1.110688
-0.195200,-0.078324,1.124596
-0.210328,-0.076616,1.128500
-0.235704,-0.073444,1.137284
-0.260592,-0.066368,1.147288
-0.271816,-0.051972,1.161440
-0.270352,-0.038552,1.178032
-0.255712,-0.021472,1.193648
-0.254248,-0.011224,1.207556
-0.269132,-0.002440,1.215364
-0.298656,0.005612,1.221952
-0.343064,0.010492,1.227564
-0.389180,0.012688,1.228052
-0.397232,0.010248,1.218292
-0.390644,0.004636,1.204628
-0.389424,-0.004148,1.188768
-0.421632,-0.018300,1.180228
-0.434320,-0.031476,1.155828
-0.411872,-0.046848,1.145580
-0.379176,-0.062220,1.120448
-0.346724,-0.075884,1.108492
-0.304024,-0.077592,1.061156
-0.228384,-0.097356,1.047736
-0.071248,-0.074420,1.016992
-0.085888,-0.094428,0.965264
-0.153964,-0.108336,0.928664
-0.198616,-0.115168,0.923784
-0.212768,-0.119804,0.922808
-0.203984,-0.112972,0.915976
-0.191052,-0.101504,0.897676
-0.174460,-0.096868,0.887184
-0.114436,-0.114436,0.885964
-0.121268,-0.111020,0.885476
-0.146400,-0.095648,0.894748
-0.169092,-0.074420,0.911584
-0.200324,-0.048556,0.927444
-0.280600,-0.028060,0.915244
-0.307196,-0.021960,0.938424
-0.308904,-0.020740,0.946476
-0.297436,-0.020008,0.955748
-0.282308,-0.014640,0.961848
-0.266692,-0.006100,0.961604
-0.254248,0.002684,0.968436
-0.257420,0.012688,0.969168
-0.278648,0.011956,0.960140
-0.272792,0.016104,0.956724
-0.258884,0.013664,0.948428
-0.243512,0.013664,0.943792
-0.230824,0.008052,0.933788
-0.217892,0.001464,0.928420
-0.214232,-0.004392,0.894016
-0.172508,-0.023424,0.904508
-0.159576,-0.039528,0.877180
-0.145180,-0.044652,0.869616
-0.129808,-0.059780,0.861320
-0.101992,-0.073688,0.849364
-0.036356,-0.125172,0.827404
-0.023668,-0.093940,0.822768
-0.066612,-0.042456,0.826428
-0.111996,-0.027572,0.825452
-0.135420,-0.031720,0.822524
-0.121512,-0.054900,0.828868
-0.097356,-0.068808,0.831796
-0.088328,-0.073932,0.857416
-0.111996,-0.065148,0.868884
-0.131760,-0.060024,0.874008
-0.143960,-0.056120,0.884500
-0.136640,-0.057096,0.883524
-0.120048,-0.057828,0.891820
-0.129320,-0.051728,0.894504
-0.133956,-0.048068,0.901336
-0.139812,-0.043432,0.905484
-0.143716,-0.038796,0.911340
-0.144204,-0.037820,0.915244
-0.142984,-0.033428,0.916952
-0.159576,-0.035380,0.947208
-0.139812,-0.031476,0.942084
-0.135420,-0.033184,0.936716
-0.140544,-0.030744,0.948428
-0.137128,-0.028304,0.935496
-0.134444,-0.026596,0.946232
-0.128100,-0.026352,0.932568
-0.125416,-0.027572,0.936228
-0.124440,-0.026352,0.931836
-0.119072,-0.027328,0.932568
-0.118340,-0.030256,0.930128
-0.114436,-0.030988,0.924272
-0.115656,-0.033672,0.932324
-0.110288,-0.037576,0.932568
-0.107604,-0.037576,0.933056
-0.103944,-0.037576,0.933300
-0.105408,-0.037820,0.934520
-0.101992,-0.038552,0.933788
-0.100772,-0.040504,0.935496
-0.099796,-0.039284,0.938424
-0.099064,-0.040992,0.940620
-0.100284,-0.040260,0.945012
-0.099796,-0.040504,0.948916
-0.098088,-0.038552,0.956236
-0.098576,-0.039528,0.962336
-0.099552,-0.041480,0.971608
-0.097112,-0.043432,0.978196
-0.095160,-0.039284,0.982588
-0.094672,-0.040260,0.985760
-0.094916,-0.034160,0.988688
-0.094672,-0.033428,0.999180
-0.091988,-0.031720,1.000156
-0.091500,-0.032696,1.001864
-0.088084,-0.036600,1.000888
-0.085644,-0.039772,1.005524
-0.083692,-0.042700,1.009916
-0.078080,-0.044164,1.010404
-0.075396,-0.041236,1.017236
-0.075640,-0.036112,1.021628
-0.075396,-0.030256,1.023092
-0.074908,-0.022448,1.028460
-0.077592,-0.013908,1.033584
-0.079300,-0.003904,1.034072
-0.084912,0.000488,1.038464
-0.086864,0.004636,1.039196
-0.096868,0.009028,1.045540
-0.098820,0.014884,1.048956
-0.106628,0.019276,1.049688
-0.109800,0.022204,1.055056
-0.115656,0.026840,1.065304
-0.118584,0.029036,1.070184
-0.120536,0.028792,1.071404
-0.118828,0.027572,1.078968
-0.112240,0.024400,1.084580
-0.104676,0.025620,1.087020
-0.096868,0.024400,1.087996
-0.090280,0.020740,1.087508
-0.083448,0.018544,1.091656
-0.073688,0.013176,1.088484
-0.070272,0.012444,1.088240
-0.069784,0.008296,1.085800
-0.074420,0.007076,1.089948
-0.084424,0.010492,1.094828
-0.096136,0.018300,1.101660
-0.122488,0.031476,1.118496
-0.152500,0.056608,1.126792
-0.186660,0.082228,1.144604
-0.250344,0.104188,1.133868
-0.399672,0.132492,1.151192
-0.501908,0.147376,1.163392
-0.340868,0.145180,1.199016
-0.250832,0.136884,1.210972
-0.213500,0.134444,1.204628
-0.240584,0.150548,1.201944
-0.296460,0.160552,1.190476
-0.319640,0.158112,1.173396
-0.322568,0.149328,1.162904
-0.328912,0.140300,1.150948
-0.331596,0.134200,1.145336
-0.302804,0.116388,1.144604
-0.268400,0.106872,1.128012
-0.236924,0.092232,1.119472
-0.201300,0.090768,1.113616
-0.129564,0.183732,1.100684
-0.086620,0.294508,1.121424
-0.164212,-0.073932,0.987712
-0.154208,-0.007808,0.971364
-0.113460,0.102480,0.994544
-0.088084,0.119804,0.998692
-0.073444,0.054412,0.957944
-0.057096,0.049776,0.934764
-0.047336,0.067344,0.928664
-0.049532,0.085400,0.922076
-0.067344,0.101992,0.925980
-0.091500,0.106628,0.928908
-0.117608,0.109800,0.933300
-0.144936,0.108824,0.948916
-0.172264,0.103700,0.975024
-0.195932,0.110776,0.989908
-0.220820,0.115168,1.000644
-0.249368,0.120048,1.017968
-0.286944,0.118096,1.026508
-0.295240,0.122244,1.027240
-0.293776,0.130052,1.031632
-0.277672,0.141032,1.037732
-0.249612,0.144692,0.999424
-0.233020,0.151280,1.009428
-0.223016,0.149816,0.992592
-0.225456,0.150548,0.968192
-0.201056,0.143716,0.966972
-0.185440,0.138592,0.953308
-0.168360,0.132736,0.937448
-0.146156,0.129320,0.923296
-0.133712,0.125660,0.912072
-0.115900,0.122000,0.901336
-0.103700,0.116144,0.882548
-0.086864,0.102480,0.875716
-0.080764,0.094184,0.872056
-0.075396,0.091988,0.869128
-0.072956,0.089548,0.869860
-0.072712,0.086864,0.869372
-0.071492,0.084424,0.865224
-0.068564,0.084912,0.866932
-0.068808,0.085644,0.871812
-0.067100,0.089060,0.875472
-0.063684,0.093696,0.874740
-0.064172,0.101260,0.879132
-0.064904,0.107116,0.883036
-0.060268,0.112240,0.887428
-0.056852,0.115656,0.892552
-0.047336,0.118828,0.889136
-0.063684,0.114924,0.908412
-0.052460,0.116876,0.902068
-0.053924,0.116388,0.915976
-0.055388,0.116388,0.916220
-0.053192,0.118828,0.925736
-0.055388,0.117608,0.929152
-0.052948,0.116632,0.928420
-0.057340,0.113460,0.929640
-0.066124,0.109556,0.932324
-0.064416,0.105164,0.931592
-0.061976,0.102968,0.934520
