ax,ay,az,gx,gy,gz
0.764,-0.123,0.589,5.920,1.587,-1.892
0.758,-0.120,0.587,6.531,2.014,-1.770
0.755,-0.120,0.588,6.775,2.625,-1.831
0.759,-0.118,0.589,7.202,2.869,-2.258
0.767,-0.120,0.592,7.751,2.930,-2.197
0.779,-0.123,0.595,8.240,2.747,-1.587
0.799,-0.124,0.599,8.484,2.258,-0.427
0.799,-0.120,0.600,8.423,1.770,1.038
0.791,-0.115,0.600,8.179,1.587,3.113
0.801,-0.107,0.599,7.935,1.343,5.066
0.798,-0.103,0.592,7.324,1.404,6.409
0.778,-0.099,0.586,6.470,2.258,6.714
0.779,-0.094,0.584,5.493,3.418,7.019
0.779,-0.090,0.582,4.272,4.700,7.568
0.781,-0.088,0.583,3.418,5.249,8.423
0.786,-0.088,0.587,2.930,5.981,9.399
0.790,-0.086,0.589,2.258,6.348,10.376
0.794,-0.083,0.592,2.014,6.165,11.169
0.795,-0.078,0.595,1.953,5.737,11.780
0.797,-0.072,0.595,1.709,5.737,12.268
0.799,-0.067,0.595,1.892,5.981,12.634
0.795,-0.069,0.594,2.075,6.592,12.817
0.791,-0.068,0.593,2.319,7.874,12.146
0.790,-0.065,0.590,2.441,8.667,11.292
0.789,-0.064,0.583,2.625,9.460,10.193
0.793,-0.059,0.578,2.808,10.132,9.277
0.800,-0.052,0.575,3.296,10.132,8.789
0.799,-0.047,0.572,3.418,9.705,8.179
0.795,-0.039,0.569,3.723,8.484,7.385
0.789,-0.032,0.567,4.333,7.263,6.287
0.788,-0.031,0.566,5.005,6.409,5.371
0.787,-0.030,0.566,5.066,6.104,4.822
0.782,-0.030,0.566,4.578,5.676,4.822
0.782,-0.032,0.565,4.333,5.981,4.456
0.778,-0.034,0.565,4.089,6.165,3.967
0.773,-0.037,0.564,3.662,6.470,3.357
0.770,-0.040,0.562,2.991,6.775,3.235
0.767,-0.042,0.560,2.502,7.019,3.479
0.764,-0.042,0.557,1.709,7.080,3.723
0.766,-0.045,0.556,1.526,7.019,4.150
0.778,-0.049,0.555,1.648,6.470,4.089
0.779,-0.052,0.557,1.648,5.859,3.479
0.773,-0.061,0.559,1.587,5.066,2.747
0.774,-0.066,0.563,1.709,4.211,2.136
0.778,-0.069,0.565,1.709,3.357,1.892
0.775,-0.072,0.567,1.892,2.747,2.258
0.769,-0.073,0.565,2.075,2.502,2.808
0.772,-0.071,0.564,2.075,2.502,3.235
0.777,-0.069,0.560,1.526,2.991,3.418
0.777,-0.068,0.556,1.526,3.601,3.479
0.777,-0.068,0.550,1.404,3.967,3.052
0.779,-0.069,0.550,1.221,3.906,2.136
0.781,-0.070,0.551,1.343,3.906,1.831
0.787,-0.074,0.553,1.282,3.601,1.770
0.790,-0.076,0.555,0.977,3.174,2.197
0.790,-0.078,0.558,0.977,2.747,2.563
0.791,-0.080,0.562,1.160,1.953,3.174
0.792,-0.079,0.564,1.404,1.282,3.601
0.792,-0.079,0.566,1.526,0.977,3.967
0.795,-0.076,0.567,1.465,0.732,4.578
0.799,-0.074,0.570,1.343,0.610,4.944
0.796,-0.074,0.572,1.282,0.671,4.822
0.793,-0.073,0.572,1.587,1.038,4.761
0.792,-0.073,0.570,1.587,1.648,4.395
0.795,-0.074,0.569,1.709,2.319,4.211
0.794,-0.073,0.569,1.648,2.625,4.456
0.793,-0.073,0.568,1.831,2.747,4.395
0.794,-0.073,0.565,2.014,3.113,4.150
0.796,-0.075,0.564,2.319,3.113,3.906
0.798,-0.078,0.565,2.502,2.991,3.845
0.800,-0.079,0.566,2.563,2.869,3.967
0.801,-0.079,0.568,2.930,2.686,4.089
0.801,-0.080,0.571,3.174,2.380,4.211
0.800,-0.077,0.572,3.113,1.831,4.211
0.800,-0.074,0.575,3.235,1.526,4.272
0.797,-0.069,0.573,3.357,1.343,4.395
0.794,-0.067,0.572,3.479,1.709,4.578
0.790,-0.066,0.568,2.869,2.441,4.761
0.786,-0.063,0.566,2.625,2.930,5.066
0.783,-0.060,0.565,2.197,3.540,5.188
0.783,-0.058,0.563,2.075,3.723,5.310
0.782,-0.056,0.562,1.648,4.089,5.371
0.780,-0.054,0.559,1.465,3.723,5.676
0.777,-0.052,0.556,1.343,3.601,5.798
0.775,-0.049,0.553,1.282,3.479,5.859
0.775,-0.048,0.553,1.160,3.540,5.920
0.779,-0.047,0.553,1.099,3.662,5.859
0.781,-0.043,0.553,0.977,3.601,5.554
0.783,-0.042,0.552,0.793,3.113,5.310
0.783,-0.040,0.552,0.854,2.625,4.944
0.783,-0.037,0.549,0.793,2.380,4.761
0.780,-0.034,0.546,0.549,2.502,4.944
0.778,-0.032,0.544,0.244,2.563,4.822
0.777,-0.030,0.543,-0.183,2.441,4.578
0.776,-0.026,0.539,-0.427,2.869,3.967
0.776,-0.026,0.536,-0.854,2.991,3.723
0.776,-0.029,0.534,-1.160,2.808,3.784
0.773,-0.033,0.535,-1.404,2.563,3.723
0.767,-0.036,0.533,-1.648,2.075,3.357
0.763,-0.041,0.531,-1.587,1.038,2.808
0.770,-0.042,0.530,-1.404,0.000,2.502
0.776,-0.045,0.530,-1.160,-0.732,2.808
0.777,-0.053,0.534,-1.038,-1.282,2.991
0.781,-0.059,0.541,-0.793,-1.770,3.052
0.786,-0.066,0.548,-0.366,-2.136,2.502
0.792,-0.074,0.554,-0.183,-2.380,1.831
0.795,-0.081,0.561,0.305,-3.235,1.221
0.794,-0.086,0.568,0.793,-3.845,1.038
0.794,-0.091,0.571,1.404,-4.517,1.404
0.794,-0.093,0.575,2.075,-4.517,2.197
0.790,-0.097,0.578,2.563,-4.150,3.296
0.788,-0.101,0.578,2.380,-3.174,3.479
0.786,-0.103,0.578,2.441,-2.136,3.296
0.784,-0.105,0.577,2.258,-0.977,2.930
0.782,-0.108,0.574,2.441,0.427,2.991
0.784,-0.110,0.571,2.563,1.770,2.930
0.785,-0.110,0.568,2.502,2.441,3.357
0.784,-0.110,0.567,2.808,2.625,4.089
0.785,-0.105,0.567,3.357,1.465,4.700
0.792,-0.096,0.572,3.967,0.183,5.188
0.790,-0.096,0.577,4.700,-0.977,5.676
0.790,-0.091,0.582,5.432,-1.892,6.653
0.791,-0.087,0.587,5.615,-1.953,7.690
0.794,-0.081,0.590,5.859,-1.587,8.606
0.795,-0.076,0.592,5.798,-0.854,9.399
0.798,-0.066,0.591,5.798,0.244,9.827
0.800,-0.053,0.587,5.127,1.465,9.949
0.798,-0.044,0.583,4.578,2.502,9.766
0.798,-0.038,0.578,4.517,3.357,9.583
0.798,-0.029,0.573,4.150,4.028,9.460
0.798,-0.021,0.567,3.540,4.395,9.583
0.795,-0.016,0.564,3.174,4.578,9.705
0.794,-0.012,0.559,3.418,4.639,9.583
0.794,-0.009,0.557,3.357,4.456,9.399
0.795,-0.008,0.558,3.418,4.028,9.338
0.795,-0.004,0.557,3.479,3.357,9.277
0.797,-0.003,0.559,3.418,2.747,9.583
0.798,-0.004,0.562,3.235,1.892,9.827
0.795,-0.004,0.564,3.113,1.160,9.705
0.793,-0.008,0.569,3.052,0.977,9.583
0.791,-0.012,0.573,2.991,0.977,9.033
0.783,-0.020,0.578,2.502,1.404,8.423
0.786,-0.024,0.579,1.709,2.319,8.118
0.791,-0.029,0.583,1.526,2.869,7.874
0.789,-0.029,0.582,1.160,3.174,7.751
0.783,-0.029,0.580,0.916,3.662,7.019
0.779,-0.029,0.578,0.732,4.089,5.859
0.773,-0.026,0.574,0.488,4.456,4.883
0.763,-0.025,0.570,0.244,4.822,4.272
0.759,-0.026,0.565,0.061,4.761,4.150
0.755,-0.027,0.561,-0.122,4.333,4.700
0.759,-0.028,0.559,-0.122,3.845,5.676
0.760,-0.032,0.558,0.183,3.174,6.653
0.768,-0.035,0.560,0.366,2.808,6.958
0.776,-0.038,0.563,0.671,2.319,6.592
0.775,-0.039,0.567,1.038,2.197,5.981
0.783,-0.038,0.568,1.282,1.709,5.554
0.790,-0.040,0.570,1.404,1.465,5.310
0.792,-0.038,0.570,1.526,1.404,5.066
0.791,-0.037,0.571,1.709,1.465,4.822
0.789,-0.034,0.568,2.014,1.526,4.395
0.790,-0.032,0.567,2.319,1.526,4.211
0.786,-0.028,0.565,2.563,1.831,3.967
0.778,-0.027,0.563,3.113,1.831,3.235
0.779,-0.022,0.563,3.784,1.465,2.319
0.782,-0.021,0.566,4.395,0.916,1.587
0.783,-0.023,0.569,4.517,0.183,1.526
0.782,-0.024,0.573,4.639,-0.732,1.587
0.781,-0.027,0.577,4.700,-1.160,1.770
0.781,-0.029,0.579,4.211,-0.732,1.709
0.779,-0.033,0.581,4.028,-0.366,1.831
0.783,-0.036,0.582,3.662,0.244,2.014
0.783,-0.039,0.581,3.296,1.099,2.258
0.784,-0.040,0.583,2.930,1.465,2.441
0.786,-0.041,0.581,2.625,1.770,2.502
0.789,-0.043,0.580,2.869,2.075,2.197
0.791,-0.048,0.580,3.113,2.380,2.380
0.790,-0.050,0.581,3.357,2.258,2.502
0.788,-0.052,0.580,3.601,2.441,2.502
0.787,-0.053,0.581,3.784,2.136,2.808
0.786,-0.053,0.581,4.089,1.770,2.563
0.788,-0.054,0.583,4.517,1.526,2.991
0.785,-0.052,0.582,4.700,1.343,3.357
0.782,-0.050,0.580,4.883,1.465,3.601
0.781,-0.051,0.580,5.005,1.770,3.723
0.781,-0.048,0.578,4.700,2.380,3.418
0.781,-0.045,0.577,4.700,2.747,3.418
0.781,-0.042,0.575,4.456,2.747,3.113
0.783,-0.041,0.575,4.211,2.747,2.991
0.784,-0.038,0.576,4.211,2.441,2.808
0.784,-0.037,0.575,4.089,2.136,3.235
0.784,-0.037,0.573,4.150,1.953,3.235
0.782,-0.039,0.575,3.967,1.709,3.357
0.781,-0.037,0.575,3.845,1.160,3.601
0.779,-0.037,0.578,4.028,0.793,3.784
0.779,-0.037,0.580,4.028,0.549,3.845
0.780,-0.038,0.582,4.150,0.977,4.272
0.782,-0.038,0.582,3.967,1.526,4.639
0.783,-0.039,0.583,3.906,2.136,4.822
0.784,-0.039,0.584,3.662,2.563,4.578
0.783,-0.039,0.584,3.418,2.869,4.211
0.783,-0.039,0.585,3.418,2.747,3.662
0.782,-0.040,0.585,3.418,2.686,3.601
0.783,-0.041,0.585,3.479,2.869,3.967
0.780,-0.041,0.584,3.601,2.747,4.272
0.778,-0.040,0.582,3.723,2.625,4.761
0.779,-0.040,0.579,3.479,2.625,4.883
0.780,-0.040,0.579,3.235,2.686,4.944
0.780,-0.037,0.578,3.235,2.136,4.761
0.782,-0.038,0.577,3.235,2.014,4.761
0.783,-0.040,0.577,3.784,1.648,4.883
0.784,-0.041,0.578,3.784,1.465,5.005
0.781,-0.040,0.579,3.479,1.221,5.127
0.779,-0.040,0.578,3.479,1.282,5.005
0.781,-0.039,0.579,3.418,1.892,4.700
0.781,-0.038,0.578,3.113,2.319,4.517
0.781,-0.036,0.575,2.869,2.686,4.456
0.779,-0.035,0.572,2.930,2.747,4.333
0.779,-0.036,0.573,2.808,2.869,4.517
0.779,-0.036,0.574,2.808,2.686,4.456
0.778,-0.036,0.576,2.869,2.441,4.395
0.779,-0.035,0.577,2.747,2.136,4.395
0.779,-0.037,0.579,2.808,1.709,4.028
0.777,-0.039,0.580,2.930,1.343,3.784
0.775,-0.039,0.583,3.174,1.221,3.540
0.775,-0.039,0.586,3.418,1.343,3.906
0.774,-0.038,0.584,3.052,1.648,4.395
0.775,-0.036,0.584,2.747,1.892,4.761
0.773,-0.032,0.583,2.747,2.319,4.700
0.768,-0.031,0.581,2.563,2.441,4.395
0.771,-0.031,0.581,2.625,2.502,3.906
0.772,-0.030,0.579,2.869,2.319,3.784
0.775,-0.027,0.581,2.869,2.197,3.845
0.775,-0.027,0.580,2.991,1.831,4.089
0.775,-0.026,0.580,3.052,1.404,4.028
0.778,-0.024,0.581,3.052,1.038,4.028
0.780,-0.022,0.582,2.869,0.610,3.906
0.781,-0.023,0.584,2.869,0.488,3.845
0.779,-0.023,0.587,2.808,0.488,3.540
0.779,-0.023,0.587,2.502,0.549,3.235
0.779,-0.025,0.588,2.197,0.854,3.296
0.782,-0.027,0.587,1.709,1.465,3.357
0.785,-0.029,0.585,1.099,1.953,3.113
0.786,-0.028,0.586,0.916,2.136,2.686
0.789,-0.031,0.587,0.977,2.197,2.258
0.792,-0.033,0.589,1.404,2.136,2.258
0.783,-0.032,0.588,1.282,2.014,2.563
0.778,-0.031,0.583,1.404,2.014,3.296
0.781,-0.032,0.583,1.587,2.319,3.662
0.780,-0.030,0.580,1.465,2.441,3.479
0.778,-0.029,0.580,1.221,2.625,3.174
0.779,-0.030,0.581,1.404,2.686,2.625
0.782,-0.032,0.584,1.526,2.136,2.014
0.781,-0.031,0.585,1.892,2.136,1.953
0.781,-0.033,0.587,2.197,2.075,2.136
0.780,-0.033,0.589,2.197,2.319,1.953
0.781,-0.034,0.588,1.953,2.625,1.648
0.779,-0.034,0.588,1.526,3.113,1.099
0.775,-0.031,0.584,1.221,3.662,0.366
0.768,-0.026,0.579,1.282,4.211,-0.183
0.767,-0.027,0.571,1.221,4.639,0.244
0.772,-0.031,0.563,1.099,5.066,0.977
0.776,-0.029,0.559,1.221,5.493,1.343
0.780,-0.027,0.553,0.977,5.676,1.465
0.788,-0.027,0.551,1.160,5.310,0.549
0.793,-0.032,0.553,1.648,4.639,-0.305
0.792,-0.038,0.556,2.014,3.662,-0.854
0.790,-0.041,0.559,2.502,2.380,-1.160
0.789,-0.044,0.564,3.113,1.526,-0.854
0.784,-0.048,0.569,3.357,1.099,-0.549
0.779,-0.052,0.571,3.174,0.916,-0.244
0.774,-0.054,0.573,3.113,1.526,-0.183
0.770,-0.055,0.573,3.113,2.258,-0.427
0.772,-0.057,0.574,2.869,2.563,-0.427
0.773,-0.060,0.576,2.747,2.991,-0.427
0.774,-0.061,0.577,2.991,2.991,-0.061
0.774,-0.061,0.578,3.296,2.747,0.244
0.772,-0.060,0.579,3.845,2.258,0.671
0.771,-0.059,0.577,4.028,1.770,1.160
0.772,-0.060,0.577,4.211,1.404,1.709
0.773,-0.059,0.578,4.456,1.526,2.075
0.775,-0.058,0.577,4.456,1.587,2.319
0.775,-0.058,0.578,4.272,2.075,2.563
0.778,-0.058,0.579,4.211,2.808,2.502
0.781,-0.058,0.580,4.089,3.601,2.563
0.782,-0.060,0.579,3.967,3.845,2.686
0.781,-0.061,0.577,3.967,4.211,2.625
0.778,-0.061,0.578,3.967,3.906,2.808
0.777,-0.059,0.575,4.028,3.845,2.808
0.775,-0.056,0.575,3.967,3.723,3.296
0.777,-0.055,0.574,4.028,3.723,3.662
0.780,-0.057,0.573,3.967,3.601,3.784
0.782,-0.056,0.574,4.089,3.235,3.906
0.784,-0.056,0.573,4.272,2.502,3.906
0.783,-0.053,0.574,4.639,1.831,4.028
0.780,-0.049,0.574,4.822,0.977,4.395
0.778,-0.045,0.571,4.883,0.916,5.310
0.778,-0.046,0.570,5.066,1.587,5.981
0.780,-0.045,0.569,4.761,2.258,6.042
0.779,-0.044,0.568,4.456,2.869,5.554
0.781,-0.044,0.567,4.395,3.113,4.639
0.783,-0.042,0.570,4.456,2.930,3.906
0.783,-0.040,0.571,4.517,2.563,4.028
0.779,-0.036,0.568,4.578,1.831,4.395
0.776,-0.034,0.570,4.578,1.526,4.822
0.775,-0.031,0.569,4.639,1.343,5.310
0.775,-0.031,0.568,4.456,1.526,5.188
0.778,-0.033,0.569,3.967,1.709,4.761
0.782,-0.035,0.572,3.418,1.831,4.028
0.786,-0.037,0.575,3.479,1.343,3.540
0.787,-0.040,0.578,3.540,0.610,3.540
0.788,-0.041,0.581,3.479,0.122,3.906
0.786,-0.043,0.583,3.479,-0.244,4.211
0.786,-0.044,0.586,3.479,0.000,4.517
0.786,-0.045,0.586,3.052,0.488,4.761
0.789,-0.044,0.585,2.686,1.038,4.456
0.790,-0.044,0.583,2.502,1.404,4.272
0.790,-0.043,0.583,2.808,1.770,4.089
0.791,-0.043,0.581,2.747,1.709,4.333
0.790,-0.044,0.580,2.747,2.197,4.578
0.793,-0.044,0.581,2.625,2.441,4.761
0.796,-0.045,0.582,2.502,2.686,4.761
0.797,-0.047,0.581,2.563,2.808,4.456
0.797,-0.049,0.582,2.319,2.930,4.272
0.797,-0.050,0.582,2.380,2.869,4.211
0.795,-0.050,0.583,2.380,2.686,4.456
0.794,-0.051,0.583,2.502,2.380,4.761
0.792,-0.052,0.581,2.502,2.563,5.005
0.792,-0.052,0.580,2.502,2.747,5.127
0.792,-0.053,0.580,2.502,3.113,5.310
0.792,-0.052,0.581,2.502,3.845,5.371
0.793,-0.053,0.580,2.380,4.272,5.310
0.793,-0.054,0.579,2.197,4.700,5.188
0.791,-0.053,0.577,2.319,4.944,5.127
0.789,-0.052,0.574,2.197,5.127,5.127
0.787,-0.052,0.573,2.258,5.188,5.432
0.786,-0.053,0.571,2.136,5.188,5.920
0.786,-0.050,0.572,2.136,4.822,5.920
0.783,-0.049,0.572,2.014,4.211,5.859
0.783,-0.047,0.572,2.319,4.028,5.554
0.781,-0.045,0.574,2.808,3.540,5.493
0.779,-0.044,0.574,2.686,3.479,5.981
0.777,-0.041,0.573,2.441,3.845,6.287
0.775,-0.039,0.571,2.319,4.700,6.165
0.775,-0.037,0.568,2.136,5.249,6.042
0.775,-0.035,0.564,2.197,5.432,5.615
0.778,-0.035,0.560,2.197,5.554,5.249
0.780,-0.035,0.559,2.441,5.615,5.127
0.779,-0.032,0.556,2.258,5.615,5.127
0.776,-0.031,0.553,2.258,5.310,5.005
0.776,-0.028,0.553,2.502,4.639,4.761
0.778,-0.029,0.553,2.686,3.967,4.333
0.782,-0.032,0.555,2.930,3.296,4.150
0.780,-0.030,0.557,2.991,2.625,3.784
0.781,-0.030,0.558,2.686,2.014,3.418
0.779,-0.031,0.560,2.747,1.953,3.235
0.777,-0.032,0.559,2.441,1.892,3.296
0.777,-0.034,0.560,2.258,2.197,3.174
0.778,-0.036,0.560,2.014,2.319,3.113
0.779,-0.035,0.561,1.892,2.380,3.113
0.779,-0.035,0.559,1.831,2.502,3.052
0.778,-0.035,0.561,1.892,2.686,3.052
0.777,-0.035,0.560,2.014,2.563,3.113
0.776,-0.036,0.559,1.892,2.441,3.235
0.778,-0.036,0.559,1.953,2.625,3.174
0.779,-0.036,0.557,1.953,2.625,3.235
0.782,-0.036,0.557,1.892,2.319,3.174
0.785,-0.038,0.558,2.075,1.831,3.052
0.789,-0.041,0.562,2.502,0.916,2.502
0.794,-0.044,0.570,2.319,0.244,2.197
0.798,-0.046,0.577,2.258,-0.305,1.953
0.800,-0.049,0.587,2.502,-0.671,1.648
0.802,-0.050,0.591,2.502,-0.610,1.587
0.802,-0.050,0.594,2.075,0.122,1.648
0.800,-0.048,0.595,2.075,1.160,2.075
0.798,-0.049,0.596,1.770,2.686,2.258
0.797,-0.047,0.591,1.343,4.333,2.136
0.797,-0.047,0.588,1.038,5.615,2.075
0.793,-0.045,0.582,1.038,6.165,1.587
0.787,-0.046,0.578,1.343,5.981,1.404
0.781,-0.048,0.574,2.258,5.310,1.465
0.774,-0.053,0.569,2.869,4.944,2.075
0.763,-0.059,0.561,3.174,5.127,3.052
0.768,-0.060,0.557,3.479,5.676,4.089
0.782,-0.061,0.553,3.601,6.287,4.883
0.788,-0.065,0.551,3.845,6.531,4.639
0.793,-0.069,0.549,4.150,5.737,3.845
0.799,-0.074,0.552,4.517,4.578,3.174
0.795,-0.082,0.554,5.249,3.296,2.808
0.795,-0.083,0.556,5.432,2.258,2.991
0.792,-0.084,0.557,5.554,1.709,3.723
0.785,-0.083,0.560,5.554,1.587,4.333
0.779,-0.080,0.561,5.493,1.892,4.395
0.781,-0.075,0.561,5.371,2.686,4.395
0.781,-0.071,0.560,5.066,3.784,4.639
0.783,-0.065,0.559,4.761,4.578,5.005
0.781,-0.055,0.556,4.517,5.066,5.554
0.782,-0.047,0.554,4.517,5.188,5.737
0.786,-0.037,0.552,4.395,5.127,6.042
0.789,-0.025,0.551,4.333,4.456,6.104
0.788,-0.018,0.552,4.639,3.784,6.287
0.787,-0.010,0.553,4.761,2.930,6.287
0.780,-0.005,0.555,4.578,2.014,6.104
0.772,-0.002,0.558,4.395,1.343,5.981
0.770,-0.003,0.563,4.150,1.099,6.104
0.782,-0.005,0.569,3.662,1.282,7.202
0.786,-0.003,0.575,2.869,1.648,8.301
0.797,-0.002,0.580,2.441,1.892,8.545
0.808,-0.003,0.586,2.319,2.380,7.996
0.805,-0.003,0.588,2.319,2.991,6.592
0.800,-0.003,0.587,2.258,3.235,5.066
0.799,-0.003,0.583,2.136,3.967,4.272
0.793,-0.002,0.575,1.953,4.883,3.906
0.787,-0.001,0.568,2.075,5.615,3.906
0.792,-0.007,0.561,1.892,5.859,3.601
0.786,-0.005,0.552,1.404,5.676,2.991
0.780,-0.005,0.547,1.404,5.066,1.831
0.777,-0.014,0.543,1.587,4.456,0.977
0.772,-0.021,0.541,1.160,3.357,0.488
0.770,-0.026,0.539,0.732,2.380,0.244
0.770,-0.036,0.544,1.038,1.831,0.366
0.773,-0.043,0.548,1.038,1.587,0.427
0.779,-0.050,0.549,1.343,1.282,0.305
0.782,-0.055,0.550,1.709,1.221,0.244
0.784,-0.059,0.549,1.831,1.038,-0.122
0.785,-0.063,0.550,2.197,0.732,-0.305
0.785,-0.068,0.550,2.625,0.244,-0.244
0.790,-0.067,0.552,2.747,-0.366,0.000
0.799,-0.064,0.556,2.869,-0.732,0.366
0.804,-0.063,0.558,2.930,-1.282,0.732
0.803,-0.062,0.560,2.930,-1.709,0.854
0.804,-0.060,0.564,2.930,-1.953,0.671
0.802,-0.059,0.567,3.052,-2.075,0.854
0.798,-0.058,0.570,3.113,-2.075,1.526
0.797,-0.056,0.571,3.357,-2.014,2.380
0.796,-0.055,0.573,3.235,-1.648,3.540
0.798,-0.055,0.574,2.747,-0.732,4.456
0.798,-0.055,0.575,2.686,0.061,4.761
0.799,-0.054,0.575,2.502,0.610,4.761
0.800,-0.054,0.579,2.319,1.343,4.272
0.802,-0.053,0.578,2.380,1.770,4.028
0.803,-0.054,0.577,2.319,2.197,3.906
0.802,-0.053,0.575,2.563,2.197,4.089
0.797,-0.055,0.572,2.930,1.831,4.333
0.798,-0.051,0.573,3.357,1.282,4.150
0.801,-0.048,0.575,3.601,0.671,3.967
0.802,-0.046,0.575,3.723,0.488,3.967
0.798,-0.046,0.576,3.906,0.610,4.150
0.794,-0.046,0.575,3.906,1.038,4.456
0.791,-0.047,0.573,3.540,1.770,4.944
0.790,-0.047,0.570,3.479,2.808,5.066
0.790,-0.047,0.567,3.174,3.662,5.127
0.790,-0.046,0.564,2.686,4.028,5.066
0.786,-0.046,0.563,2.563,4.272,4.883
0.785,-0.046,0.561,2.747,4.028,4.944
0.781,-0.046,0.560,2.991,3.479,4.944
0.778,-0.047,0.562,3.174,2.869,5.249
0.775,-0.045,0.564,3.174,2.380,5.432
0.774,-0.045,0.566,3.235,2.014,5.371
0.773,-0.046,0.568,3.479,1.770,5.188
0.771,-0.045,0.567,3.418,1.709,5.005
0.771,-0.044,0.567,3.479,1.770,4.883
0.768,-0.040,0.568,3.540,1.953,4.883
0.770,-0.036,0.569,3.235,1.892,4.944
0.772,-0.033,0.570,3.235,1.770,4.883
0.773,-0.031,0.571,3.113,1.648,4.578
0.775,-0.030,0.571,3.296,1.526,4.517
0.773,-0.030,0.569,3.296,1.709,4.333
0.771,-0.030,0.567,3.296,1.831,4.272
0.769,-0.030,0.562,3.357,2.502,3.967
0.770,-0.030,0.561,3.113,3.235,3.723
0.775,-0.030,0.560,2.686,3.662,3.235
0.778,-0.030,0.557,2.686,3.967,2.441
0.777,-0.033,0.557,3.113,3.540,1.526
0.779,-0.036,0.557,3.662,2.747,0.732
0.785,-0.036,0.557,3.845,1.709,0.549
0.787,-0.037,0.560,3.906,1.038,0.732
0.786,-0.039,0.563,4.028,0.366,0.916
0.787,-0.041,0.565,4.333,-0.122,0.671
0.788,-0.044,0.567,4.517,-0.244,0.305
0.788,-0.047,0.568,4.089,0.122,0.305
0.787,-0.048,0.567,3.662,0.549,0.916
0.787,-0.050,0.567,3.479,1.282,1.465
0.786,-0.052,0.565,3.052,1.953,1.892
0.787,-0.053,0.566,3.052,2.319,2.014
0.791,-0.054,0.569,3.052,2.197,1.953
0.792,-0.057,0.571,2.869,1.831,2.197
0.794,-0.057,0.573,2.869,1.099,2.441
0.796,-0.057,0.581,3.296,0.183,2.625
0.796,-0.055,0.583,3.418,-0.305,3.174
0.795,-0.055,0.586,3.601,-0.488,3.418
0.792,-0.054,0.587,3.601,-0.122,3.723
0.791,-0.055,0.587,3.479,0.793,3.784
0.790,-0.056,0.584,3.174,1.709,3.540
0.789,-0.054,0.584,3.052,2.869,3.418
0.790,-0.052,0.585,2.930,3.418,3.296
0.790,-0.051,0.584,2.686,3.540,3.235
0.789,-0.049,0.580,2.808,3.540,3.235
0.788,-0.047,0.578,3.113,3.296,3.418
0.785,-0.047,0.576,3.235,3.113,3.479
0.782,-0.046,0.573,3.174,2.930,3.845
0.785,-0.044,0.573,3.174,3.174,4.089
0.787,-0.043,0.571,2.991,3.662,4.028
0.787,-0.043,0.571,2.502,3.845,3.845
0.786,-0.043,0.569,2.197,4.333,3.174
0.787,-0.045,0.569,2.014,4.089,2.502
0.787,-0.046,0.569,2.014,3.723,2.380
0.786,-0.046,0.569,2.014,3.235,2.747
0.784,-0.048,0.570,2.136,2.686,3.174
0.781,-0.047,0.570,2.258,2.380,3.723
0.778,-0.047,0.569,1.953,2.319,4.150
0.777,-0.048,0.570,1.953,2.686,4.272
0.778,-0.048,0.571,1.709,3.296,4.211
0.778,-0.047,0.571,1.587,3.601,3.906
0.778,-0.045,0.569,1.343,3.601,3.784
0.778,-0.043,0.570,1.221,3.357,3.601
0.777,-0.042,0.570,1.465,3.052,4.089
0.778,-0.040,0.568,1.465,2.747,4.578
0.778,-0.040,0.569,1.526,2.686,4.822
0.780,-0.039,0.570,1.648,2.686,4.639
0.782,-0.041,0.571,1.404,2.869,4.150
0.785,-0.041,0.571,1.343,2.563,3.235
0.785,-0.041,0.574,1.404,2.197,2.869
0.781,-0.040,0.573,1.404,1.953,2.686
0.778,-0.039,0.574,1.465,1.831,2.869
0.776,-0.038,0.574,1.587,1.770,3.052
0.774,-0.036,0.572,1.465,2.258,3.357
0.774,-0.036,0.568,1.404,2.991,3.540
0.776,-0.037,0.565,0.916,3.540,3.235
0.778,-0.039,0.562,0.793,4.028,2.991
0.782,-0.040,0.560,0.549,4.028,2.625
0.783,-0.039,0.560,0.427,3.418,2.502
0.782,-0.037,0.560,0.671,2.441,2.502
0.782,-0.036,0.563,0.916,1.404,2.502
0.782,-0.033,0.566,0.854,0.427,2.563
0.780,-0.035,0.569,1.099,-0.183,2.319
0.779,-0.036,0.572,1.038,-0.488,2.319
0.777,-0.040,0.574,0.793,0.122,2.563
0.776,-0.042,0.574,0.671,0.488,2.441
0.776,-0.042,0.575,0.427,0.916,2.502
0.777,-0.042,0.573,0.183,1.465,2.197
0.778,-0.042,0.573,0.000,1.404,2.014
0.778,-0.041,0.571,0.183,1.343,2.014
0.777,-0.042,0.571,0.366,0.977,1.953
0.778,-0.043,0.570,0.305,0.732,1.892
0.776,-0.047,0.571,0.366,0.366,1.831
0.775,-0.050,0.574,0.427,-0.061,1.648
0.779,-0.053,0.576,0.122,-0.549,1.831
0.783,-0.057,0.580,0.061,-1.038,1.770
0.784,-0.060,0.581,-0.122,-1.526,1.953
0.782,-0.064,0.580,-0.122,-1.648,2.380
0.778,-0.067,0.578,-0.183,-1.282,2.686
0.774,-0.072,0.575,-0.549,-0.305,2.869
0.771,-0.073,0.570,-1.038,0.549,2.991
0.772,-0.075,0.566,-1.221,1.282,3.052
0.771,-0.077,0.564,-1.526,1.526,3.235
0.770,-0.080,0.562,-1.770,1.282,3.174
0.771,-0.082,0.564,-1.709,0.549,2.808
0.770,-0.084,0.568,-1.648,-0.549,2.319
0.765,-0.089,0.572,-1.160,-1.404,1.526
0.758,-0.094,0.577,-0.854,-2.014,0.916
0.748,-0.097,0.582,-0.916,-2.319,0.671
0.741,-0.098,0.584,-1.282,-2.258,0.732
0.739,-0.100,0.587,-1.343,-2.197,1.099
0.739,-0.102,0.589,-1.404,-2.075,1.221
0.734,-0.102,0.587,-1.526,-1.526,1.099
0.734,-0.100,0.587,-1.526,-1.404,0.671
0.734,-0.097,0.584,-1.465,-1.404,0.610
0.739,-0.093,0.584,-1.465,-1.709,0.549
0.745,-0.088,0.586,-1.282,-1.953,0.549
0.748,-0.083,0.586,-1.343,-2.380,0.427
0.751,-0.079,0.588,-1.282,-2.930,-0.122
0.755,-0.075,0.587,-1.099,-3.235,-0.366
0.756,-0.070,0.586,-1.099,-3.540,-0.366
0.760,-0.065,0.586,-1.404,-3.235,-0.122
0.764,-0.061,0.587,-1.770,-2.869,-0.061
0.766,-0.057,0.585,-2.014,-2.441,-0.061
0.768,-0.055,0.583,-2.197,-2.258,-0.183
0.771,-0.053,0.582,-2.747,-2.136,-0.366
0.775,-0.051,0.582,-3.052,-1.953,-0.305
0.779,-0.051,0.583,-3.418,-1.892,-0.366
0.786,-0.052,0.588,-3.418,-2.075,-0.549
0.796,-0.054,0.592,-3.540,-2.686,-0.916
0.802,-0.055,0.601,-3.113,-3.479,-1.343
0.794,-0.060,0.606,-2.930,-4.272,-1.587
0.793,-0.065,0.612,-2.686,-4.761,-1.953
0.791,-0.070,0.619,-2.502,-4.517,-2.075
0.789,-0.071,0.623,-2.747,-3.845,-1.892
0.786,-0.072,0.624,-3.052,-2.625,-1.831
0.787,-0.071,0.628,-3.540,-0.977,-1.831
0.789,-0.071,0.628,-4.211,1.221,-1.892
0.791,-0.069,0.628,-4.761,3.296,-2.319
0.793,-0.067,0.625,-4.700,4.944,-2.686
0.786,-0.067,0.618,-4.761,5.859,-2.930
0.794,-0.065,0.613,-4.456,6.714,-2.686
0.794,-0.062,0.608,-4.150,6.531,-1.953
0.790,-0.059,0.602,-3.967,5.981,-1.587
0.782,-0.057,0.599,-3.784,5.127,-1.831
0.775,-0.057,0.596,-3.723,4.028,-1.892
0.779,-0.050,0.596,-3.845,3.418,-1.892
0.782,-0.045,0.596,-3.967,2.808,-1.526
0.780,-0.046,0.599,-3.906,1.892,-1.038
0.785,-0.047,0.602,-3.845,0.916,-0.793
0.785,-0.047,0.606,-3.723,0.305,-0.793
0.779,-0.045,0.607,-3.601,-0.061,-0.793
0.774,-0.045,0.610,-4.089,0.183,-0.671
0.766,-0.044,0.607,-4.822,1.282,-0.671
0.766,-0.043,0.607,-5.371,2.502,-0.610
0.768,-0.040,0.603,-6.165,3.723,-0.610
0.770,-0.038,0.600,-6.836,4.639,-0.671
0.771,-0.038,0.598,-6.836,4.822,-0.854
0.774,-0.037,0.597,-6.836,4.700,-1.038
0.767,-0.034,0.596,-7.019,4.395,-1.404
0.763,-0.031,0.596,-7.263,4.150,-1.709
0.764,-0.029,0.597,-7.202,3.723,-2.075
0.764,-0.028,0.597,-7.263,3.601,-2.197
0.764,-0.025,0.598,-7.385,3.479,-2.319
0.763,-0.023,0.599,-7.080,3.601,-2.319
0.761,-0.020,0.599,-7.080,3.784,-2.197
0.761,-0.012,0.600,-6.897,4.089,-1.587
0.761,-0.007,0.598,-6.836,4.395,-1.282
0.757,-0.007,0.595,-6.714,5.127,-0.977
0.760,-0.005,0.591,-6.714,5.737,-1.160
0.764,-0.006,0.588,-6.470,6.104,-1.099
0.764,-0.004,0.584,-6.409,6.042,-1.160
0.767,-0.006,0.584,-5.920,5.554,-1.282
0.771,-0.005,0.584,-5.615,4.700,-1.282
0.773,-0.001,0.584,-5.188,3.967,-0.793
0.775,0.001,0.583,-5.066,3.479,-0.427
0.770,0.000,0.580,-4.456,3.174,-0.183
0.774,0.006,0.579,-3.967,2.869,0.061
0.783,0.012,0.578,-3.540,2.502,0.305
0.791,0.016,0.580,-2.808,1.953,0.671
0.797,0.016,0.587,-2.380,1.099,0.916
0.799,0.015,0.594,-1.465,-0.305,0.793
0.801,0.015,0.597,-0.610,-1.038,0.549
0.806,0.022,0.600,-0.122,-1.221,1.221
0.803,0.027,0.596,0.122,-0.671,2.014
0.801,0.034,0.591,0.061,0.854,2.930
0.803,0.037,0.583,-0.244,2.747,3.113
0.809,0.039,0.579,-0.610,4.761,3.113
0.816,0.039,0.572,-0.916,6.470,2.563
0.821,0.036,0.569,-1.099,7.568,1.892
0.825,0.037,0.564,-0.977,7.629,1.709
0.825,0.039,0.562,-0.366,7.141,2.075
0.822,0.039,0.563,0.244,6.226,2.686
0.818,0.042,0.562,0.427,5.249,3.235
0.813,0.040,0.564,1.343,4.578,3.845
0.812,0.035,0.566,2.319,4.272,3.906
0.813,0.037,0.569,3.052,3.845,3.906
0.811,0.029,0.576,3.906,3.845,3.967
0.801,0.020,0.581,4.395,4.028,4.028
0.789,0.010,0.583,4.456,4.517,4.395
0.789,0.005,0.583,4.456,5.432,4.578
0.796,0.018,0.583,4.333,5.920,5.066
0.787,0.021,0.578,4.517,7.019,5.798
0.774,0.028,0.574,4.761,7.690,6.531
0.768,0.025,0.568,4.944,7.935,6.958
0.776,0.016,0.567,5.310,7.751,6.958
0.781,0.022,0.567,5.188,7.385,6.775
0.788,0.018,0.569,5.310,6.165,6.470
0.790,0.007,0.572,5.920,5.066,6.104
0.779,0.002,0.576,6.470,4.333,5.066
0.775,-0.005,0.575,6.409,4.211,4.211
0.768,-0.014,0.576,6.470,4.578,3.601
0.764,-0.021,0.578,6.531,5.066,2.625
0.761,-0.026,0.578,6.348,5.554,1.709
0.760,-0.029,0.580,6.897,5.859,0.977
0.756,-0.030,0.578,7.263,5.981,0.793
0.748,-0.028,0.573,7.507,5.981,1.404
0.737,-0.027,0.568,7.507,5.981,2.380
0.721,-0.025,0.565,7.080,6.165,3.052
0.734,-0.016,0.563,7.019,6.104,3.418
0.754,-0.006,0.566,7.019,5.432,3.723
0.759,0.001,0.568,7.141,4.395,4.639
0.757,0.008,0.570,7.080,3.113,5.493
0.768,0.012,0.573,7.507,1.465,6.287
0.770,0.015,0.580,7.507,0.244,6.897
0.771,0.018,0.585,7.019,-0.366,7.324
0.776,0.019,0.587,6.775,-0.366,7.385
0.780,0.017,0.591,6.287,0.183,7.324
0.785,0.015,0.591,6.042,1.221,7.141
0.787,0.013,0.588,5.310,2.625,6.897
0.789,0.011,0.586,4.822,3.662,6.470
0.788,0.007,0.582,4.517,4.639,6.165
0.787,0.005,0.581,4.272,5.249,5.615
0.785,0.000,0.580,4.395,5.920,4.883
0.782,-0.004,0.578,4.578,6.104,3.906
0.783,-0.008,0.577,4.639,5.798,3.296
0.781,-0.013,0.577,5.005,5.005,2.686
0.778,-0.017,0.577,5.676,3.662,2.563
0.776,-0.021,0.582,6.531,2.319,2.625
0.771,-0.025,0.585,7.019,1.160,2.991
0.767,-0.028,0.590,7.141,0.916,3.357
0.764,-0.031,0.590,7.080,0.916,3.418
0.762,-0.033,0.589,6.531,1.465,3.418
0.760,-0.033,0.584,5.676,2.747,3.662
0.758,-0.033,0.578,5.066,3.845,4.211
0.755,-0.032,0.572,4.578,4.883,4.639
0.757,-0.032,0.567,4.089,5.615,4.944
0.763,-0.030,0.561,3.967,5.493,5.432
0.766,-0.031,0.559,3.967,5.249,5.371
0.772,-0.031,0.559,3.906,4.822,5.432
0.776,-0.031,0.561,4.089,3.784,5.249
0.775,-0.033,0.566,4.272,2.686,4.822
0.773,-0.037,0.571,4.517,1.770,4.211
0.772,-0.041,0.575,5.005,1.099,3.113
0.770,-0.043,0.579,5.127,0.977,2.380
0.768,-0.046,0.582,5.127,1.038,1.709
0.765,-0.047,0.583,5.249,1.648,1.465
0.753,-0.047,0.582,4.883,2.258,1.404
0.752,-0.046,0.581,4.761,2.197,1.587
0.764,-0.041,0.578,4.639,2.380,2.014
0.769,-0.038,0.577,4.639,2.380,2.747
0.774,-0.036,0.575,4.333,2.380,3.052
0.773,-0.037,0.576,4.211,1.831,2.502
0.771,-0.042,0.578,3.967,1.404,1.465
0.776,-0.049,0.579,3.906,1.160,0.854
0.777,-0.055,0.581,3.784,1.160,1.038
0.778,-0.060,0.583,3.479,0.671,1.831
0.778,-0.066,0.584,3.052,0.854,2.502
0.779,-0.072,0.588,2.747,1.099,2.869
0.781,-0.078,0.591,2.563,1.282,2.380
0.785,-0.081,0.594,2.136,1.526,2.075
0.789,-0.084,0.597,2.075,1.282,1.831
0.786,-0.089,0.601,2.502,1.221,1.770
0.786,-0.093,0.603,2.563,0.854,1.770
0.783,-0.095,0.603,2.869,0.610,2.258
0.779,-0.099,0.602,2.625,0.732,2.625
0.776,-0.102,0.599,2.319,1.404,2.869
0.775,-0.106,0.597,2.197,1.953,3.174
0.772,-0.110,0.594,2.014,2.380,3.052
0.771,-0.116,0.592,2.136,2.991,2.808
0.769,-0.122,0.589,2.014,3.357,2.380
0.768,-0.127,0.587,1.587,3.723,2.075
0.768,-0.131,0.587,1.526,3.967,2.258
0.770,-0.135,0.587,1.526,3.723,2.441
0.776,-0.142,0.588,1.709,3.601,2.686
0.779,-0.149,0.590,1.892,3.296,2.869
0.782,-0.153,0.595,2.014,2.625,2.930
0.778,-0.148,0.600,2.014,1.770,2.930
0.776,-0.146,0.609,2.258,1.221,3.357
0.773,-0.142,0.616,2.441,0.549,3.723
0.766,-0.138,0.622,2.380,0.488,4.456
0.757,-0.133,0.626,2.197,1.343,5.493
0.747,-0.129,0.626,2.014,2.563,6.531
0.739,-0.125,0.620,1.587,4.211,7.202
0.739,-0.118,0.614,1.160,5.859,7.690
0.744,-0.109,0.606,0.854,7.446,7.812
0.745,-0.102,0.600,0.610,7.996,7.996
0.750,-0.094,0.595,0.671,7.812,7.812
0.758,-0.086,0.593,1.038,6.714,7.263
0.762,-0.080,0.595,2.258,5.127,7.019
0.759,-0.082,0.595,3.174,3.601,7.080
0.760,-0.081,0.597,3.784,2.502,7.202
0.762,-0.075,0.595,3.967,2.136,7.324
0.761,-0.072,0.595,4.150,2.380,7.202
0.762,-0.071,0.592,4.028,3.540,6.714
0.765,-0.068,0.587,3.845,4.333,6.042
0.764,-0.065,0.579,3.479,5.188,5.371
0.760,-0.061,0.573,3.357,5.981,4.700
0.757,-0.060,0.563,3.540,6.531,4.150
0.764,-0.061,0.555,3.601,6.714,4.150
0.772,-0.061,0.549,3.906,6.348,4.089
0.778,-0.057,0.546,4.333,5.493,4.272
0.786,-0.055,0.545,4.578,4.089,4.272
0.793,-0.057,0.547,5.188,2.625,3.967
0.781,-0.061,0.548,5.615,1.160,3.052
0.777,-0.066,0.551,6.104,0.732,1.892
0.779,-0.071,0.555,6.409,0.916,1.282
0.778,-0.077,0.556,6.165,1.404,1.221
0.776,-0.078,0.555,5.920,2.197,1.404
0.778,-0.078,0.557,5.798,2.930,1.709
0.778,-0.077,0.559,6.104,3.235,1.465
0.778,-0.078,0.559,6.348,2.808,1.038
0.780,-0.076,0.560,6.592,2.197,0.977
0.787,-0.069,0.564,6.714,1.770,1.221
0.779,-0.076,0.570,7.080,0.977,1.343
0.782,-0.075,0.577,7.202,0.183,1.221
0.787,-0.071,0.584,7.141,0.122,1.099
0.790,-0.061,0.590,6.897,0.305,1.221
0.787,-0.058,0.592,6.775,0.977,1.343
0.781,-0.059,0.590,6.836,2.258,1.587
0.781,-0.053,0.585,6.653,3.540,1.343
0.783,-0.045,0.580,6.226,4.700,1.465
0.784,-0.039,0.574,6.042,5.432,1.770
0.783,-0.033,0.570,5.859,5.737,1.892
0.784,-0.029,0.567,6.165,5.127,1.709
0.786,-0.025,0.564,6.653,3.845,1.282
0.784,-0.022,0.563,6.958,2.319,1.282
0.780,-0.017,0.561,7.080,1.282,2.075
0.775,-0.013,0.560,6.775,0.732,2.625
0.774,-0.009,0.559,6.470,0.916,3.235
0.774,-0.006,0.558,5.798,1.465,3.479
0.775,-0.003,0.556,5.066,1.648,3.540
0.777,-0.005,0.553,4.578,2.014,3.662
0.781,-0.003,0.548,4.150,2.319,3.784
0.782,-0.001,0.545,3.967,2.197,4.089
0.786,-0.002,0.542,3.967,1.831,4.395
0.793,-0.002,0.543,3.845,1.465,4.456
0.796,-0.001,0.542,3.540,0.610,4.333
0.798,-0.002,0.545,3.235,-0.488,4.089
0.800,-0.006,0.549,2.991,-1.343,3.540
0.802,-0.011,0.556,2.869,-2.136,3.174
0.805,-0.016,0.559,2.563,-2.319,3.296
0.805,-0.025,0.564,2.502,-2.319,3.540
0.805,-0.033,0.566,2.563,-2.075,3.967
0.806,-0.039,0.568,2.136,-1.770,4.028
0.806,-0.045,0.569,1.648,-0.610,3.784
0.801,-0.052,0.568,1.526,0.854,3.662
0.794,-0.058,0.564,1.160,1.831,3.418
0.787,-0.060,0.559,0.793,2.808,3.601
0.785,-0.058,0.553,0.244,3.235,3.906
0.785,-0.054,0.552,0.061,3.174,4.456
0.782,-0.049,0.550,0.061,2.686,4.944
0.782,-0.048,0.553,0.183,1.404,4.822
0.784,-0.049,0.558,0.854,0.061,4.456
0.785,-0.051,0.561,1.648,-1.038,4.456
0.783,-0.049,0.562,1.526,-1.526,4.883
0.782,-0.049,0.563,1.282,-1.526,5.432
0.780,-0.047,0.558,1.038,-0.916,5.249
0.777,-0.047,0.552,0.549,0.366,4.517
0.775,-0.047,0.543,0.000,1.648,3.784
0.786,-0.045,0.533,-0.244,2.563,3.235
0.798,-0.039,0.523,-0.549,2.991,3.113
0.803,-0.032,0.516,-0.854,2.441,3.235
0.818,-0.022,0.511,-1.160,1.099,3.479
0.821,-0.025,0.508,-0.916,-0.671,3.418
0.827,-0.030,0.508,-0.488,-2.197,3.113
0.818,-0.035,0.510,-0.305,-3.174,2.197
0.816,-0.040,0.510,-0.244,-3.357,1.343
0.816,-0.047,0.509,-0.732,-2.747,0.977
0.813,-0.051,0.505,-1.587,-1.648,0.916
0.812,-0.055,0.500,-2.136,-0.122,0.977
0.811,-0.058,0.495,-2.625,0.854,0.244
0.813,-0.061,0.494,-2.808,0.732,-0.366
0.814,-0.064,0.496,-2.441,-0.183,-0.854
0.813,-0.067,0.501,-1.892,-1.831,-1.465
0.810,-0.069,0.508,-0.793,-3.479,-1.831
0.810,-0.069,0.518,0.183,-5.798,-1.587
0.808,-0.070,0.527,0.916,-7.446,-1.099
0.807,-0.072,0.535,1.404,-8.057,-0.732
0.810,-0.074,0.543,1.465,-7.996,-0.427
0.813,-0.074,0.548,1.282,-7.202,-0.366
0.813,-0.073,0.551,0.793,-5.737,-0.610
0.810,-0.073,0.550,0.183,-4.211,-0.793
0.806,-0.071,0.545,-0.549,-2.930,-0.854
0.804,-0.066,0.541,-0.854,-2.258,-0.610
0.803,-0.062,0.534,-1.160,-1.953,-0.305
0.800,-0.060,0.529,-1.099,-1.770,0.122
0.795,-0.057,0.525,-1.099,-1.953,0.549
0.792,-0.056,0.523,-0.977,-2.197,0.671
0.790,-0.056,0.525,-0.916,-2.441,0.793
0.793,-0.055,0.531,-0.977,-2.869,0.671
0.796,-0.053,0.537,-1.099,-3.235,0.427
0.795,-0.059,0.543,-0.854,-3.296,0.183
0.794,-0.064,0.547,-0.854,-3.113,0.000
0.791,-0.065,0.549,-0.977,-3.052,-0.244
0.787,-0.066,0.552,-1.099,-2.808,-0.488
0.791,-0.062,0.551,-1.465,-2.869,-0.427
0.788,-0.058,0.550,-1.892,-2.686,-0.061
0.786,-0.056,0.548,-2.380,-2.380,0.488
0.791,-0.055,0.544,-2.991,-2.258,0.488
0.796,-0.055,0.540,-3.479,-2.075,0.366
0.803,-0.058,0.536,-3.662,-1.953,0.305
0.810,-0.061,0.534,-4.089,-1.953,0.427
0.813,-0.067,0.532,-4.456,-2.075,1.038
0.814,-0.065,0.528,-4.761,-2.014,1.404
0.811,-0.067,0.528,-5.127,-1.831,1.465
0.810,-0.072,0.527,-5.371,-1.465,1.282
0.821,-0.080,0.535,-5.676,-1.404,0.610
0.811,-0.085,0.533,-5.920,-0.977,-0.427
0.807,-0.087,0.533,-6.042,-0.671,-1.221
0.802,-0.108,0.539,-4.822,-0.732,-2.136
0.806,-0.107,0.545,-3.967,-1.404,-2.869
0.805,-0.101,0.546,-2.991,-1.892,-3.357
0.792,-0.097,0.549,-1.709,-2.319,-3.601
0.793,-0.106,0.548,-0.427,-2.869,-3.174
0.799,-0.108,0.547,0.244,-3.052,-1.892
0.814,-0.098,0.546,-0.488,-2.930,-0.549
0.831,-0.079,0.546,-1.526,-2.441,0.916
0.837,-0.071,0.545,-2.625,-2.136,2.136
0.852,-0.069,0.544,-4.089,-1.770,2.869
0.844,-0.075,0.544,-6.042,-0.916,3.418
0.832,-0.090,0.538,-7.996,0.366,3.906
0.841,-0.081,0.538,-9.827,2.441,4.700
0.845,-0.089,0.539,-10.925,5.005,6.592
0.853,-0.096,0.537,-12.451,7.141,8.667
0.868,-0.101,0.536,-13.428,8.423,9.277
0.867,-0.110,0.532,-13.367,9.277,7.874
0.865,-0.123,0.531,-13.000,9.766,5.676
0.863,-0.130,0.529,-11.963,9.399,3.357
0.851,-0.133,0.526,-10.864,8.423,1.587
0.850,-0.141,0.525,-9.399,6.775,0.732
0.874,-0.143,0.530,-7.996,4.883,0.916
0.873,-0.141,0.533,-6.714,3.235,0.610
0.871,-0.137,0.539,-5.554,1.892,-0.183
0.867,-0.136,0.546,-4.578,1.038,-1.160
0.862,-0.135,0.552,-3.845,0.793,-2.563
0.860,-0.138,0.562,-3.540,0.305,-3.967
0.860,-0.141,0.573,-3.296,-0.122,-5.127
0.868,-0.136,0.589,-2.869,-1.038,-5.493
0.874,-0.133,0.601,-2.380,-1.587,-4.761
0.869,-0.139,0.611,-1.892,-1.343,-3.357
0.865,-0.140,0.616,-1.892,0.000,-1.770
0.862,-0.136,0.619,-1.831,1.648,-1.038
0.863,-0.132,0.618,-1.831,3.540,-1.099
0.867,-0.127,0.618,-1.831,5.371,-1.160
0.865,-0.122,0.616,-1.526,7.019,-1.221
0.859,-0.109,0.617,-1.343,8.179,-1.221
0.854,-0.094,0.623,-0.793,9.155,-1.526
0.846,-0.084,0.631,-0.427,9.583,-1.953
0.840,-0.071,0.646,0.061,9.155,-2.930
0.835,-0.045,0.661,0.793,8.484,-3.052
0.816,-0.031,0.677,1.831,7.935,-2.930
0.793,-0.034,0.690,2.930,7.812,-2.319
0.778,-0.032,0.707,3.540,8.057,-2.136
0.769,-0.028,0.727,4.028,8.789,-2.502
0.762,-0.028,0.745,4.639,9.827,-3.418
0.747,-0.040,0.755,5.432,10.803,-4.700
0.745,-0.038,0.760,6.226,11.597,-6.287
0.734,-0.043,0.763,7.263,12.451,-7.568
0.724,-0.044,0.758,7.751,13.184,-8.484
0.712,-0.038,0.749,8.179,13.794,-8.850
0.693,-0.032,0.739,8.606,14.282,-9.033
0.649,-0.025,0.728,9.277,14.160,-8.850
0.644,-0.038,0.712,9.888,13.245,-6.836
0.658,-0.036,0.702,10.193,12.634,-4.333
0.642,-0.020,0.693,10.010,12.207,-1.953
0.627,-0.020,0.688,9.460,11.658,0.000
0.644,0.012,0.683,9.399,11.353,0.732
0.645,0.012,0.672,9.216,11.780,1.343
0.647,0.014,0.661,8.606,12.268,1.221
0.641,0.022,0.651,8.118,12.451,0.977
0.627,0.023,0.641,7.935,12.268,1.526
0.632,0.020,0.630,7.324,12.024,3.174
0.646,0.016,0.624,6.409,11.902,5.981
0.654,0.013,0.616,5.371,11.475,8.362
0.673,0.002,0.613,4.578,10.925,9.888
0.690,0.004,0.612,3.357,9.583,10.254
0.697,0.014,0.609,2.075,7.996,10.132
0.707,0.009,0.606,1.892,6.531,10.010
0.708,0.007,0.600,1.648,5.493,10.498
0.705,0.004,0.591,1.587,5.066,10.925
0.701,-0.007,0.579,1.465,5.432,11.292
0.711,-0.002,0.566,0.854,6.470,11.414
0.695,0.001,0.554,0.366,8.118,10.498
0.682,0.004,0.547,0.183,9.705,8.850
0.686,0.011,0.535,0.549,10.254,7.141
0.706,0.013,0.527,1.892,9.766,6.348
0.709,0.010,0.528,3.723,7.996,6.287
0.710,0.007,0.528,5.188,5.005,6.897
0.709,-0.000,0.532,6.592,1.404,7.141
0.711,-0.004,0.539,7.568,-1.709,7.141
0.716,-0.006,0.550,7.935,-4.150,7.263
0.720,-0.017,0.563,8.240,-6.409,7.996
0.721,-0.027,0.573,7.812,-7.690,8.972
0.722,-0.036,0.580,7.141,-7.568,10.254
0.715,-0.043,0.577,6.104,-5.859,12.024
0.720,-0.034,0.576,4.578,-3.235,14.221
0.719,-0.035,0.569,3.662,-0.366,16.113
0.724,-0.035,0.558,2.930,2.869,17.334
0.742,-0.036,0.544,1.953,5.493,17.273
0.766,-0.038,0.536,1.587,7.080,16.113
0.774,-0.031,0.534,2.136,6.714,14.648
0.768,-0.026,0.532,3.662,4.639,13.550
0.772,-0.031,0.534,5.859,1.282,13.184
0.776,-0.034,0.538,8.423,-1.953,13.489
0.783,-0.034,0.543,10.498,-4.150,14.404
0.794,-0.027,0.551,11.780,-5.554,15.015
0.796,-0.021,0.556,12.878,-5.615,15.198
0.798,-0.017,0.560,13.611,-4.578,14.038
0.804,-0.013,0.562,14.465,-2.808,12.085
0.805,-0.012,0.559,15.015,-0.916,10.437
0.807,-0.008,0.553,15.503,0.977,9.644
0.813,-0.000,0.548,15.930,2.747,9.583
0.810,0.003,0.541,16.602,3.723,9.460
0.810,0.007,0.534,17.151,4.272,9.521
0.811,0.012,0.530,17.456,4.517,9.338
0.809,0.016,0.527,17.883,4.517,9.338
0.806,0.020,0.524,17.883,4.517,9.033
0.804,0.023,0.525,18.066,4.333,8.606
0.797,0.028,0.525,18.250,4.211,8.362
0.790,0.035,0.524,18.066,4.456,8.850
0.786,0.047,0.524,17.578,5.066,9.277
0.790,0.062,0.522,17.273,6.409,9.766
0.785,0.053,0.521,17.212,8.545,9.949
0.769,0.028,0.518,17.029,9.949,9.033
0.772,0.038,0.515,15.808,10.803,7.385
0.788,0.043,0.517,15.503,10.681,6.470
0.797,0.050,0.515,15.503,10.010,7.019
0.800,0.060,0.514,15.442,8.911,7.874
0.808,0.073,0.515,15.564,7.935,8.240
0.826,0.089,0.517,15.137,7.385,8.301
0.846,0.103,0.520,14.404,7.446,8.484
0.862,0.110,0.523,13.306,7.935,8.545
0.880,0.105,0.527,12.024,8.545,8.484
0.904,0.109,0.542,10.498,8.728,7.568
0.923,0.109,0.558,9.094,8.484,6.775
0.940,0.107,0.580,7.812,7.751,6.592
0.947,0.103,0.602,6.409,6.714,6.531
0.949,0.102,0.614,5.310,6.287,6.836
0.936,0.087,0.635,4.456,6.165,6.531
0.926,0.078,0.641,3.906,7.141,6.165
0.927,0.065,0.654,3.662,8.423,5.920
0.929,0.055,0.658,2.930,10.254,5.859
0.919,0.043,0.660,1.587,11.963,5.615
0.903,0.032,0.665,0.793,12.634,4.150
0.898,0.016,0.676,0.671,11.597,1.648
0.895,-0.006,0.692,1.404,8.911,-0.244
0.876,-0.024,0.712,2.258,5.066,-1.038
0.847,-0.035,0.725,3.296,1.160,-0.671
0.839,-0.052,0.737,4.639,-1.831,0.977
0.841,-0.069,0.737,5.493,-2.991,3.357
0.822,-0.080,0.726,5.249,-2.991,5.371
0.785,-0.099,0.705,4.578,-1.465,6.592
0.771,-0.076,0.676,3.113,2.197,6.958
0.791,-0.060,0.651,1.587,7.446,7.996
0.818,-0.056,0.614,0.854,12.329,10.803
0.825,-0.061,0.587,0.061,15.686,13.489
0.848,-0.062,0.565,0.000,17.212,14.832
0.846,-0.058,0.556,0.732,17.212,14.526
0.847,-0.073,0.552,2.563,15.381,13.489
0.837,-0.087,0.556,4.822,12.817,12.146
0.796,-0.102,0.557,6.409,9.705,11.475
0.764,-0.115,0.565,8.179,7.324,11.902
0.730,-0.126,0.569,9.399,6.042,13.245
0.694,-0.134,0.571,9.155,6.836,15.015
0.663,-0.137,0.568,7.935,8.789,16.235
0.638,-0.144,0.565,6.226,11.536,16.174
0.623,-0.152,0.561,4.150,14.038,14.343
0.613,-0.146,0.557,1.892,15.137,11.292
0.613,-0.138,0.559,0.305,14.160,8.240
0.613,-0.132,0.569,-0.488,11.108,6.409
0.594,-0.132,0.575,-0.671,6.958,5.798
0.581,-0.140,0.579,-0.366,2.625,5.981
0.579,-0.141,0.584,-0.122,-0.977,6.531
0.585,-0.138,0.586,-0.610,-2.991,7.202
0.596,-0.137,0.587,-1.221,-4.700,7.690
0.617,-0.134,0.589,-1.221,-5.859,7.446
0.642,-0.129,0.589,-1.038,-6.714,6.592
0.666,-0.123,0.586,-0.977,-6.714,5.493
0.691,-0.119,0.580,-0.916,-6.165,4.456
0.720,-0.111,0.570,-0.549,-4.944,3.723
0.741,-0.101,0.553,-0.427,-3.662,3.296
0.750,-0.093,0.536,-0.305,-2.380,2.441
0.749,-0.081,0.510,-0.061,-1.770,1.343
0.750,-0.064,0.495,0.000,-0.610,0.427
0.742,-0.062,0.485,0.366,0.244,-0.122
0.755,-0.058,0.482,0.427,0.122,-0.244
0.772,-0.051,0.484,0.366,-0.732,-0.244
0.771,-0.057,0.495,0.488,-1.892,-0.549
0.755,-0.052,0.505,0.610,-3.357,-1.587
0.764,-0.048,0.521,0.671,-5.371,-2.502
0.758,-0.067,0.542,1.526,-7.019,-2.441
0.745,-0.075,0.560,1.526,-8.240,-2.136
0.743,-0.081,0.576,0.366,-8.423,-2.075
0.747,-0.083,0.589,-0.549,-7.812,-2.380
0.753,-0.081,0.596,-1.404,-6.653,-2.319
0.763,-0.079,0.598,-2.258,-5.127,-2.014
0.774,-0.075,0.595,-3.296,-3.540,-1.526
0.783,-0.073,0.586,-4.517,-2.441,-1.160
0.794,-0.070,0.577,-5.310,-1.648,-0.977
0.801,-0.066,0.566,-5.920,-1.099,-0.977
0.810,-0.061,0.554,-6.775,-0.610,-0.977
0.815,-0.059,0.547,-7.263,-0.244,-0.854
0.817,-0.048,0.539,-7.446,-0.305,-0.977
0.817,-0.046,0.529,-7.751,-0.549,-0.793
0.822,-0.045,0.529,-7.874,-1.160,-0.671
0.825,-0.045,0.526,-8.118,-1.465,-0.793
0.818,-0.050,0.525,-8.423,-1.587,-1.282
0.813,-0.055,0.523,-8.606,-1.404,-1.892
0.817,-0.058,0.524,-9.033,-1.038,-2.258
0.812,-0.062,0.525,-9.827,-0.793,-2.380
0.803,-0.065,0.524,-10.620,-0.854,-2.747
0.804,-0.067,0.526,-11.169,-1.221,-3.296
0.814,-0.066,0.529,-11.353,-1.831,-3.662
0.813,-0.068,0.531,-11.597,-2.197,-3.601
0.809,-0.072,0.532,-11.536,-2.380,-3.174
0.808,-0.073,0.530,-11.353,-2.502,-2.686
0.806,-0.076,0.528,-11.536,-2.319,-2.136
0.804,-0.080,0.522,-11.902,-1.160,-1.770
0.805,-0.086,0.513,-12.634,0.427,-1.770
0.802,-0.090,0.503,-13.367,2.319,-1.709
0.802,-0.094,0.495,-14.099,3.906,-1.526
0.807,-0.094,0.487,-14.465,4.578,-1.465
0.813,-0.093,0.482,-14.832,4.395,-1.160
0.819,-0.095,0.478,-14.648,3.723,-0.793
0.811,-0.107,0.478,-14.160,2.563,-0.793
0.813,-0.115,0.478,-13.733,1.526,-0.916
0.819,-0.123,0.480,-13.367,0.366,-1.343
0.826,-0.132,0.485,-12.878,-0.610,-1.404
0.832,-0.138,0.489,-12.268,-1.160,-1.221
0.837,-0.143,0.491,-11.841,-1.404,-0.977
0.844,-0.149,0.491,-11.108,-1.160,-0.610
0.854,-0.156,0.493,-10.742,-0.305,-0.305
0.869,-0.159,0.493,-10.681,0.977,0.061
0.883,-0.160,0.493,-10.620,1.953,1.160
0.899,-0.159,0.495,-10.315,2.502,2.197
0.914,-0.158,0.501,-9.888,2.258,3.113
0.930,-0.156,0.509,-9.827,1.831,3.906
0.947,-0.154,0.521,-10.071,1.526,4.211
0.944,-0.160,0.542,-10.193,0.916,3.357
0.942,-0.156,0.567,-10.315,-0.793,1.526
0.961,-0.162,0.604,-9.705,-2.747,-0.122
0.946,-0.153,0.623,-7.874,-5.676,-1.160
0.936,-0.161,0.648,-5.188,-6.897,-0.854
0.904,-0.165,0.661,-3.174,-5.249,-0.061
0.876,-0.161,0.666,-2.014,-2.197,0.671
0.858,-0.146,0.669,-1.343,2.441,0.916
0.876,-0.142,0.668,-0.488,7.385,0.610
0.868,-0.133,0.668,0.793,10.803,-0.183
0.865,-0.120,0.672,2.075,11.963,-0.977
0.863,-0.102,0.681,3.662,10.925,-1.648
0.852,-0.082,0.686,5.798,8.545,-1.892
0.845,-0.066,0.692,8.362,5.920,-1.282
0.836,-0.051,0.693,9.949,4.639,-0.183
0.817,-0.031,0.691,10.498,4.639,0.549
0.805,-0.012,0.687,10.071,6.042,0.671
0.808,0.001,0.684,9.094,8.423,0.122
0.804,0.017,0.679,8.057,10.742,-0.732
0.793,0.031,0.676,6.897,12.573,-1.892
0.788,0.039,0.672,6.409,13.733,-2.747
0.782,0.037,0.662,6.287,14.893,-3.052
0.772,0.036,0.651,6.470,16.235,-2.625
0.740,0.040,0.636,6.287,18.005,-2.258
0.713,0.038,0.617,6.348,20.691,-1.953
0.679,0.035,0.594,6.226,23.743,-2.136
0.644,0.041,0.574,4.883,26.672,-3.235
0.631,0.045,0.560,4.028,28.442,-4.333
0.636,0.044,0.551,3.357,28.381,-5.493
0.617,0.042,0.550,2.991,26.550,-6.226
0.621,0.048,0.557,3.418,22.583,-6.470
0.638,0.052,0.566,4.456,17.090,-5.798
0.642,0.047,0.575,5.676,10.986,-5.066
0.651,0.043,0.585,7.385,4.944,-4.089
0.647,0.047,0.592,8.850,-0.305,-2.502
0.678,0.043,0.595,10.071,-3.113,-0.183
0.701,0.028,0.598,10.559,-4.211,3.052
0.713,0.018,0.592,9.583,-3.479,5.615
0.738,0.015,0.583,7.935,-1.892,7.019
0.768,0.012,0.573,5.920,0.854,7.568
0.785,0.010,0.557,3.906,4.028,7.751
0.789,0.009,0.541,2.625,6.836,7.385
0.797,0.013,0.522,1.953,8.972,7.202
0.802,0.022,0.501,1.160,10.559,8.057
0.801,0.033,0.484,0.854,11.658,9.094
0.790,0.043,0.466,0.732,12.512,9.521
0.779,0.045,0.457,1.099,12.634,8.728
0.766,0.036,0.454,1.770,11.963,6.653
0.755,0.027,0.461,2.136,10.132,4.089
0.741,0.019,0.475,2.808,7.446,1.343
0.735,0.007,0.494,4.150,3.357,-0.366
0.736,0.002,0.520,5.005,-1.465,-0.427
0.720,-0.016,0.530,6.531,-5.676,0.732
0.717,-0.024,0.552,7.751,-9.460,2.625
0.712,-0.040,0.568,9.155,-11.841,4.456
0.725,-0.043,0.583,9.949,-12.695,5.554
0.732,-0.049,0.592,10.376,-12.024,6.409
0.746,-0.050,0.593,10.010,-10.315,6.958
0.762,-0.051,0.588,10.071,-7.507,7.996
0.774,-0.048,0.578,9.949,-4.150,9.399
0.784,-0.039,0.562,9.338,-2.014,10.864
0.795,-0.026,0.541,8.667,-0.122,11.963
0.803,-0.011,0.521,8.484,1.648,12.390
0.803,0.003,0.503,8.301,2.563,12.756
0.802,0.013,0.492,7.935,2.625,13.062
0.802,0.023,0.482,7.690,1.953,13.611
0.803,0.031,0.478,7.874,1.038,14.282
0.816,0.049,0.479,8.057,-0.366,14.832
0.806,0.034,0.486,8.789,-1.709,15.381
0.797,0.026,0.499,9.766,-2.563,15.076
0.798,0.027,0.513,10.254,-4.028,14.343
0.798,0.018,0.526,10.925,-5.188,13.977
0.800,0.016,0.541,11.719,-5.798,13.428
0.803,0.017,0.554,12.512,-5.615,12.634
0.808,0.020,0.567,12.939,-4.822,12.329
0.802,0.018,0.570,12.878,-3.174,11.658
0.810,0.027,0.569,12.451,-1.526,10.864
0.813,0.034,0.563,12.329,0.916,10.132
0.813,0.043,0.553,12.085,3.052,9.644
0.810,0.052,0.542,11.902,4.822,8.789
0.809,0.061,0.530,11.597,5.981,7.874
0.819,0.069,0.517,11.536,6.287,7.690
0.823,0.079,0.508,11.658,5.859,7.751
0.818,0.087,0.500,11.597,5.188,8.240
0.818,0.093,0.493,11.536,4.578,8.240
0.810,0.097,0.487,11.292,4.150,7.751
0.817,0.101,0.487,10.925,4.028,7.202
0.825,0.108,0.491,10.254,3.967,6.897
0.833,0.110,0.495,9.644,3.479,6.775
0.834,0.098,0.501,9.949,2.686,6.348
0.839,0.096,0.508,9.827,1.892,5.371
0.846,0.093,0.513,9.583,1.465,4.883
0.851,0.090,0.521,9.644,1.587,4.761
0.857,0.089,0.526,9.033,2.502,4.822
0.865,0.088,0.529,8.301,3.479,4.150
0.869,0.082,0.533,8.118,4.822,2.686
0.880,0.076,0.539,7.935,5.615,1.160
0.900,0.078,0.542,7.263,5.615,0.793
0.911,0.080,0.545,6.897,5.188,1.343
0.917,0.082,0.548,6.653,4.822,2.808
0.921,0.086,0.547,6.287,4.761,3.845
0.921,0.095,0.546,5.554,5.127,4.150
0.919,0.106,0.546,4.395,5.920,4.639
0.922,0.113,0.552,2.869,6.836,4.761
0.944,0.106,0.565,1.892,6.958,4.456
0.955,0.098,0.585,1.709,6.104,3.723
0.977,0.091,0.607,2.258,4.517,3.235
0.971,0.065,0.628,2.991,2.747,3.296
0.933,0.039,0.646,2.380,1.160,2.991
0.903,0.019,0.661,1.770,-0.061,1.282
0.894,-0.000,0.678,1.831,-1.099,-0.061
0.880,-0.019,0.692,1.953,-1.648,-0.366
0.863,-0.039,0.705,1.770,-1.831,0.122
0.839,-0.066,0.713,2.441,-1.648,0.610
0.814,-0.089,0.712,3.357,-0.183,0.427
0.807,-0.103,0.703,3.967,2.197,0.854
0.799,-0.135,0.678,4.028,5.310,2.686
0.769,-0.131,0.649,3.418,8.789,4.211
0.764,-0.111,0.618,2.808,12.878,5.859
0.778,-0.121,0.589,3.540,16.663,8.423
0.784,-0.120,0.565,3.723,19.409,11.108
0.794,-0.112,0.542,4.333,20.264,12.878
0.802,-0.118,0.528,6.348,20.081,13.428
0.779,-0.122,0.520,7.874,19.409,12.512
0.741,-0.127,0.515,8.911,18.005,10.620
0.710,-0.141,0.516,9.827,16.174,9.033
0.701,-0.149,0.524,10.376,13.855,8.484
0.690,-0.161,0.534,10.071,11.230,8.606
0.680,-0.164,0.551,9.216,8.484,8.484
0.667,-0.161,0.573,8.362,5.432,7.629
0.657,-0.161,0.593,6.775,3.052,6.653
0.639,-0.157,0.607,4.822,1.343,5.737
0.625,-0.166,0.614,2.563,1.038,4.883
0.611,-0.167,0.612,0.366,1.526,4.456
0.601,-0.162,0.602,-1.282,2.747,4.578
0.617,-0.151,0.592,-2.380,4.211,5.737
0.632,-0.138,0.576,-2.808,5.432,7.385
0.678,-0.125,0.561,-2.136,5.737,9.399
0.710,-0.107,0.541,-0.732,5.127,10.620
0.730,-0.088,0.518,1.221,4.639,10.864
0.761,-0.068,0.500,2.991,4.578,10.803
0.788,-0.050,0.476,4.089,4.700,10.742
0.798,-0.030,0.460,4.883,4.822,9.888
0.810,-0.009,0.445,5.371,4.883,8.667
0.819,0.004,0.440,5.615,4.272,7.019
0.821,0.006,0.446,5.859,3.052,4.517
0.808,0.004,0.455,5.859,1.038,1.648
0.792,0.001,0.468,5.493,-1.526,-0.793
0.789,-0.006,0.479,4.944,-3.418,-2.014
0.739,-0.018,0.495,3.723,-5.310,-2.625
0.705,-0.039,0.512,2.319,-6.042,-3.113
0.711,-0.051,0.536,0.549,-5.554,-3.601
0.716,-0.059,0.553,-1.160,-4.395,-3.601
0.719,-0.068,0.566,-2.380,-2.869,-3.540
0.722,-0.076,0.572,-3.357,-2.075,-3.418
0.735,-0.082,0.572,-3.601,-1.648,-3.235
0.750,-0.079,0.567,-4.028,-1.099,-2.258
0.767,-0.077,0.554,-4.578,-0.488,-0.732
0.772,-0.064,0.539,-5.371,0.000,0.366
0.790,-0.049,0.524,-6.165,0.366,0.671
0.814,-0.035,0.510,-6.653,0.732,0.549
0.825,-0.030,0.498,-7.324,0.671,0.305
0.829,-0.029,0.482,-8.118,0.305,-0.244
0.829,-0.027,0.475,-9.094,-0.610,-0.732
0.833,-0.034,0.475,-9.338,-1.648,-1.038
0.841,-0.033,0.486,-9.644,-2.747,-1.160
0.846,-0.045,0.500,-9.705,-4.333,-1.343
0.850,-0.054,0.514,-9.521,-6.226,-1.709
0.849,-0.067,0.528,-9.033,-7.263,-2.380
0.845,-0.079,0.540,-8.545,-7.202,-2.869
0.839,-0.085,0.546,-8.545,-6.165,-2.991
0.837,-0.088,0.545,-9.033,-4.150,-2.991
0.824,-0.090,0.539,-9.583,-2.258,-2.930
0.810,-0.095,0.530,-10.132,-0.671,-3.540
0.803,-0.102,0.516,-10.925,1.526,-4.150
0.811,-0.102,0.506,-11.353,2.930,-4.456
0.814,-0.101,0.498,-11.780,4.028,-4.028
0.804,-0.103,0.489,-12.268,4.700,-3.540
0.797,-0.105,0.480,-12.207,4.272,-3.601
0.802,-0.102,0.473,-11.963,3.418,-3.723
0.808,-0.100,0.469,-11.841,2.319,-3.052
0.805,-0.101,0.466,-11.597,1.160,-2.075
0.806,-0.102,0.466,-11.353,-0.061,-1.282
0.813,-0.106,0.470,-11.047,-1.160,-0.732
0.814,-0.113,0.472,-10.864,-1.709,-0.488
0.823,-0.118,0.474,-10.864,-1.465,0.061
0.831,-0.122,0.476,-10.925,-1.160,0.671
0.839,-0.125,0.478,-11.414,-0.427,1.343
0.850,-0.128,0.480,-11.780,0.061,1.404
0.863,-0.131,0.484,-11.780,0.671,0.854
0.880,-0.134,0.486,-11.597,1.343,0.427
0.905,-0.133,0.489,-11.597,2.258,0.488
0.929,-0.129,0.495,-11.353,2.930,0.549
0.940,-0.132,0.498,-10.803,3.418,0.366
0.948,-0.132,0.499,-10.376,3.662,-0.305
0.966,-0.123,0.501,-9.888,4.639,-0.305
0.969,-0.113,0.503,-9.888,6.531,0.305
0.966,-0.099,0.510,-10.742,8.667,0.549
0.971,-0.095,0.524,-11.414,9.827,-0.366
0.986,-0.098,0.550,-10.925,9.705,-2.808
0.989,-0.096,0.583,-9.705,8.545,-5.371
0.987,-0.096,0.611,-8.423,7.080,-6.104
0.975,-0.096,0.629,-7.324,6.592,-5.249
0.938,-0.101,0.641,-6.165,7.568,-4.395
0.908,-0.107,0.646,-5.188,9.155,-4.822
0.905,-0.105,0.655,-3.906,10.132,-6.165
0.888,-0.109,0.666,-2.075,10.010,-7.385
0.868,-0.111,0.672,-0.061,8.667,-8.118
0.845,-0.114,0.677,2.075,6.287,-8.057
0.817,-0.109,0.681,4.150,3.845,-7.385
0.785,-0.094,0.681,6.287,2.319,-5.737
0.776,-0.090,0.673,8.118,1.831,-3.784
0.768,-0.083,0.664,9.033,3.296,-1.831
0.744,-0.066,0.649,8.850,6.042,-0.854
0.723,-0.057,0.635,8.118,9.460,-0.549
0.715,-0.044,0.619,7.080,12.817,-0.366
0.705,-0.022,0.603,5.798,15.503,-0.061
0.692,0.001,0.587,4.639,17.639,0.366
0.684,0.009,0.572,3.784,18.677,0.549
0.667,0.026,0.561,3.052,18.799,0.000
0.650,0.033,0.552,2.991,17.578,-0.732
0.646,0.036,0.548,3.235,15.625,-1.465
0.628,0.037,0.548,3.418,13.000,-1.831
0.615,0.037,0.543,3.662,10.315,-1.953
0.624,0.045,0.545,4.211,7.385,-1.770
0.624,0.043,0.548,4.761,4.944,-1.465
0.634,0.045,0.549,5.432,2.441,-0.671
0.656,0.042,0.549,6.592,-0.366,0.488
0.687,0.043,0.547,7.324,-2.258,2.136
0.719,0.041,0.551,7.629,-4.028,3.601
0.741,0.034,0.555,7.507,-5.798,4.395
0.752,0.025,0.553,7.263,-6.897,4.395
0.780,0.021,0.556,7.080,-7.812,4.395
0.797,0.023,0.553,6.653,-7.812,5.188
0.805,0.026,0.543,5.554,-6.775,6.775
0.803,0.029,0.529,4.822,-4.517,8.118
0.799,0.032,0.512,3.906,-1.770,9.094
0.807,0.039,0.498,2.625,1.587,9.827
0.803,0.048,0.481,1.099,5.066,9.705
0.792,0.049,0.464,0.183,7.263,8.179
0.788,0.044,0.456,0.305,7.996,6.348
0.788,0.040,0.459,1.099,6.836,4.700
0.787,0.036,0.471,2.014,3.906,3.601
0.790,0.022,0.489,3.479,-0.366,3.113
0.788,0.006,0.510,5.554,-4.822,2.625
0.778,-0.012,0.535,7.751,-9.888,2.136
0.773,-0.028,0.562,9.338,-13.916,2.319
0.766,-0.037,0.581,10.010,-16.235,3.418
0.753,-0.047,0.588,9.949,-15.686,5.188
0.758,-0.046,0.591,9.338,-12.512,6.592
0.756,-0.045,0.582,8.301,-7.507,7.446
0.757,-0.041,0.568,7.080,-2.747,7.690
0.763,-0.036,0.549,6.226,0.916,7.568
0.777,-0.032,0.525,6.042,3.418,7.385
0.791,-0.025,0.501,6.409,4.211,7.874
0.798,-0.014,0.482,6.897,3.235,9.216
0.794,-0.002,0.466,7.751,1.282,10.376
0.795,0.010,0.456,8.667,-1.343,11.353
0.798,0.016,0.448,9.766,-3.174,11.780
0.784,0.022,0.446,10.864,-5.554,11.353
0.788,0.035,0.449,11.475,-7.507,10.925
0.795,0.032,0.456,12.268,-8.789,10.681
0.797,0.025,0.468,12.573,-9.583,10.559
0.796,0.018,0.482,12.512,-10.376,9.888
0.804,0.023,0.500,12.451,-11.108,8.850
0.811,0.024,0.511,12.695,-11.169,8.057
0.800,0.016,0.520,12.939,-10.803,7.568
0.803,0.015,0.525,12.939,-9.644,7.568
0.810,0.017,0.528,12.817,-7.568,7.874
0.820,0.025,0.524,12.268,-5.127,8.362
0.827,0.036,0.515,12.085,-2.808,8.545
0.834,0.044,0.505,12.024,-1.160,7.935
0.843,0.047,0.499,11.963,0.916,7.446
0.841,0.045,0.487,11.841,2.441,7.080
0.844,0.050,0.479,11.475,3.235,6.531
0.849,0.059,0.476,11.353,2.869,6.042
0.854,0.069,0.476,11.353,2.136,6.165
0.859,0.078,0.485,11.780,0.610,6.836
0.864,0.077,0.493,12.451,-0.977,7.690
0.868,0.069,0.504,13.306,-2.136,8.362
0.866,0.065,0.521,13.428,-2.747,8.423
0.874,0.068,0.536,13.062,-2.686,8.118
0.880,0.065,0.551,12.451,-2.258,8.118
0.881,0.057,0.562,11.841,-1.282,7.812
0.880,0.059,0.570,10.925,0.427,7.385
0.882,0.061,0.572,9.949,2.625,7.812
0.890,0.065,0.575,8.911,4.700,8.667
0.907,0.071,0.579,7.935,6.226,9.949
0.916,0.074,0.584,7.080,7.446,10.193
0.929,0.082,0.588,6.592,8.057,9.644
0.941,0.092,0.592,6.348,8.240,8.911
0.939,0.092,0.597,5.981,8.240,8.606
0.941,0.097,0.602,5.554,8.179,8.362
0.945,0.106,0.608,5.127,7.935,8.301
0.943,0.107,0.617,4.883,7.568,7.996
0.935,0.105,0.628,4.639,6.836,7.751
0.921,0.097,0.645,4.517,5.615,6.775
0.910,0.083,0.669,3.967,4.028,5.432
0.901,0.067,0.694,3.662,1.648,4.211
0.895,0.052,0.722,3.723,-1.465,3.479
0.891,0.026,0.751,4.272,-4.333,3.601
0.861,-0.005,0.777,4.333,-7.141,3.723
0.829,-0.037,0.797,3.845,-9.399,3.235
0.800,-0.062,0.809,3.479,-10.315,2.441
0.779,-0.087,0.812,3.357,-8.911,2.747
0.779,-0.119,0.789,2.808,-5.737,4.639
0.733,-0.147,0.754,1.892,-0.916,7.080
0.709,-0.123,0.709,0.183,5.798,8.545
0.740,-0.110,0.658,-0.610,12.878,10.193
0.756,-0.107,0.616,-0.610,19.165,12.756
0.770,-0.104,0.570,-0.427,22.827,14.282
0.777,-0.104,0.541,1.099,24.109,14.343
0.776,-0.114,0.525,3.357,23.132,12.756
0.775,-0.117,0.516,5.859,20.020,10.864
0.762,-0.126,0.520,8.972,15.625,10.132
0.746,-0.127,0.527,11.230,10.864,10.681
0.715,-0.127,0.536,12.634,6.897,11.658
0.676,-0.133,0.550,13.245,5.005,12.146
0.647,-0.138,0.563,12.329,4.700,11.475
0.621,-0.142,0.576,10.193,5.676,10.132
0.605,-0.153,0.583,7.446,6.897,8.789
0.598,-0.163,0.585,3.967,8.118,7.263
0.588,-0.133,0.596,0.000,8.362,5.737
0.589,-0.122,0.605,-2.380,7.629,5.188
0.607,-0.129,0.613,-3.601,6.531,5.676
0.599,-0.128,0.614,-5.066,5.005,6.042
0.603,-0.130,0.611,-6.042,3.906,6.348
0.623,-0.130,0.607,-5.859,3.418,6.775
0.641,-0.127,0.599,-5.615,3.296,7.446
0.665,-0.128,0.584,-4.822,4.211,8.240
0.696,-0.120,0.565,-3.601,5.310,8.850
0.747,-0.108,0.546,-2.258,6.348,8.850
0.756,-0.096,0.522,-1.343,6.897,7.935
0.762,-0.069,0.499,-0.732,6.836,5.737
0.768,-0.062,0.478,0.854,6.409,3.113
0.768,-0.048,0.465,2.014,5.249,0.610
0.775,-0.030,0.457,2.197,2.930,-0.732
0.788,-0.017,0.459,2.625,-0.061,-1.465
0.792,-0.018,0.473,3.479,-2.747,-2.075
0.791,-0.017,0.499,4.089,-5.859,-3.235
0.782,-0.021,0.522,4.272,-9.216,-4.639
0.791,-0.026,0.550,3.967,-11.658,-5.249
0.782,-0.042,0.573,3.601,-12.451,-4.578
0.769,-0.056,0.591,2.197,-11.353,-3.174
0.761,-0.066,0.601,0.366,-8.423,-1.892
0.766,-0.069,0.605,-2.075,-4.517,-0.671
0.772,-0.073,0.600,-4.456,-0.732,0.305
0.771,-0.073,0.584,-6.653,3.479,0.854
0.774,-0.071,0.566,-8.240,7.019,0.366
0.779,-0.067,0.547,-9.338,8.911,-0.366
0.780,-0.060,0.528,-9.949,9.155,-0.427
0.781,-0.053,0.509,-9.888,7.629,0.000
0.788,-0.047,0.499,-9.216,4.944,0.854
0.791,-0.044,0.496,-8.789,1.831,1.831
0.797,-0.041,0.494,-8.423,-1.282,2.136
0.799,-0.045,0.496,-7.996,-3.357,1.892
0.798,-0.050,0.501,-7.812,-5.188,1.343
0.801,-0.054,0.508,-8.118,-5.981,0.671
0.807,-0.059,0.514,-8.301,-5.798,-0.122
0.811,-0.065,0.521,-8.606,-4.700,-0.427
0.812,-0.068,0.522,-9.155,-3.174,-0.732
0.812,-0.071,0.518,-9.460,-2.197,-0.793
0.819,-0.077,0.513,-9.766,-0.732,-0.793
0.827,-0.077,0.504,-10.193,1.221,-0.427
0.837,-0.072,0.497,-11.047,3.052,-0.244
0.838,-0.073,0.487,-11.658,4.578,-0.183
0.835,-0.078,0.476,-12.329,5.493,-0.549
0.834,-0.081,0.468,-12.390,5.615,-1.282
0.832,-0.084,0.460,-12.451,5.005,-1.587
0.830,-0.084,0.457,-12.268,3.662,-1.526
0.832,-0.087,0.458,-11.902,2.197,-1.038
0.821,-0.098,0.464,-11.658,0.488,-0.854
0.832,-0.103,0.474,-11.108,-0.488,-1.038
0.844,-0.111,0.488,-10.498,-0.977,-1.099
0.849,-0.122,0.496,-10.071,-0.732,-0.854
0.842,-0.128,0.503,-10.193,0.000,-0.427
0.843,-0.135,0.508,-10.498,1.221,-0.305
0.857,-0.135,0.513,-10.681,3.113,-0.244
0.867,-0.135,0.517,-10.498,4.944,-0.244
0.879,-0.129,0.518,-10.864,6.470,-0.061
0.891,-0.124,0.521,-10.925,7.874,-0.061
0.895,-0.123,0.530,-10.864,8.667,-0.610
0.913,-0.118,0.543,-10.742,8.179,-1.587
0.927,-0.118,0.564,-9.888,6.104,-2.991
0.930,-0.126,0.591,-8.118,2.930,-3.784
0.947,-0.120,0.621,-6.226,-0.427,-3.967
0.959,-0.117,0.649,-4.333,-2.747,-3.479
0.933,-0.116,0.678,-2.502,-3.845,-2.869
0.915,-0.121,0.693,-1.038,-4.272,-3.052
0.907,-0.123,0.709,0.122,-3.052,-3.662
0.895,-0.119,0.715,1.221,-1.648,-3.357
0.895,-0.112,0.717,1.709,0.244,-1.953
0.891,-0.105,0.709,2.319,2.258,-0.732
0.891,-0.084,0.706,2.991,3.662,-0.427
0.878,-0.063,0.700,3.723,4.150,-0.549
0.857,-0.047,0.692,4.822,3.479,-1.038
0.857,-0.054,0.684,6.409,2.075,-1.465
0.839,-0.042,0.679,7.385,0.671,-2.014
0.826,-0.022,0.676,7.996,0.000,-2.319
0.808,-0.002,0.678,8.423,-0.122,-2.136
0.783,0.007,0.676,8.728,0.854,-2.136
0.758,0.009,0.674,9.155,3.418,-2.625
0.751,0.014,0.668,8.972,7.080,-2.930
0.728,0.028,0.659,8.240,11.414,-2.808
0.707,0.030,0.646,7.812,15.747,-2.747
0.685,0.031,0.626,7.202,20.081,-2.502
0.660,0.035,0.604,6.592,23.865,-2.197
0.660,0.038,0.585,5.676,26.611,-1.831
0.639,0.047,0.564,4.517,27.649,-1.831
0.629,0.048,0.548,3.845,26.978,-2.197
0.612,0.048,0.542,3.540,24.475,-3.540
0.611,0.048,0.542,3.540,20.752,-4.517
0.607,0.049,0.545,3.723,15.930,-4.700
0.602,0.049,0.551,3.784,10.864,-3.784
0.603,0.048,0.557,4.150,5.920,-2.136
0.617,0.049,0.562,4.272,1.526,0.427
0.640,0.052,0.567,4.517,-1.465,3.906
0.667,0.049,0.573,4.517,-2.625,7.446
0.703,0.047,0.576,4.150,-2.930,9.888
0.739,0.046,0.572,3.479,-2.747,11.108
0.761,0.043,0.567,2.502,-1.953,11.475
0.772,0.044,0.556,1.221,-0.305,11.169
0.784,0.047,0.541,0.000,2.014,10.925
0.795,0.052,0.526,-0.854,4.150,11.292
0.803,0.061,0.507,-1.953,6.287,11.719
0.809,0.068,0.497,-2.686,8.118,12.207
0.818,0.067,0.487,-3.113,9.033,11.597
0.814,0.072,0.478,-3.235,9.705,9.644
0.783,0.055,0.473,-2.441,9.644,6.836
0.764,0.048,0.473,-1.648,8.545,4.089
0.765,0.038,0.484,0.122,6.470,2.563
0.766,0.031,0.499,2.319,3.235,1.831
0.764,0.021,0.512,4.395,-0.610,2.441
0.768,0.010,0.528,6.226,-3.662,3.662
0.766,-0.000,0.540,7.629,-6.226,4.944
0.763,-0.007,0.549,8.301,-6.897,6.165
0.759,-0.010,0.553,8.118,-5.432,7.202
0.761,-0.016,0.552,7.568,-2.808,7.446
0.772,-0.017,0.546,6.714,-0.183,7.751
0.786,-0.010,0.536,5.615,2.625,8.545
0.793,0.000,0.516,5.127,4.517,10.010
0.798,0.013,0.504,4.822,5.371,11.658
0.802,0.016,0.489,5.310,5.249,12.817
0.790,0.020,0.477,5.859,4.395,13.733
0.793,0.033,0.463,5.859,3.418,13.733
0.798,0.034,0.455,6.531,2.502,13.733
0.790,0.021,0.452,7.690,1.343,13.550
0.786,0.022,0.450,8.301,0.000,12.878
0.786,0.027,0.453,8.911,-1.404,12.207
0.784,0.031,0.460,9.766,-2.258,11.475
0.779,0.032,0.467,10.315,-3.357,10.254
0.779,0.031,0.476,11.047,-4.700,8.911
0.779,0.034,0.484,11.963,-5.737,7.751
0.787,0.042,0.492,12.512,-6.592,7.080
0.793,0.050,0.500,12.817,-6.836,6.775
0.794,0.055,0.502,12.939,-6.714,6.409
0.803,0.063,0.507,12.756,-6.226,5.554
0.814,0.072,0.509,12.634,-5.066,5.005
0.824,0.080,0.508,12.573,-3.784,4.883
0.830,0.088,0.506,11.963,-2.747,5.005
0.833,0.095,0.502,11.414,-2.258,4.822
0.840,0.097,0.501,10.986,-1.648,4.700
0.848,0.099,0.500,10.315,-1.099,4.517
0.849,0.105,0.500,9.521,-0.305,4.028
0.853,0.106,0.500,9.094,0.122,3.235
0.858,0.102,0.504,8.789,0.488,2.747
0.863,0.098,0.506,8.301,0.793,2.441
0.862,0.091,0.509,7.935,1.160,2.014
0.860,0.086,0.515,7.568,1.404,1.221
0.869,0.083,0.521,7.019,1.831,0.427
0.881,0.078,0.529,6.775,2.136,0.122
0.885,0.071,0.539,6.714,2.625,-0.305
0.886,0.063,0.549,6.531,2.502,-0.854
0.903,0.057,0.565,6.592,2.014,-1.221
0.921,0.055,0.584,6.592,1.282,-1.221
0.927,0.054,0.600,6.775,0.366,-0.977
0.927,0.055,0.614,6.531,0.305,-0.549
0.927,0.059,0.618,5.981,1.404,0.000
0.930,0.064,0.618,4.761,3.662,0.122
0.935,0.066,0.618,3.479,6.897,-0.122
0.942,0.065,0.616,2.197,9.644,-0.610
0.947,0.066,0.614,0.977,11.230,-1.282
0.949,0.062,0.616,0.244,11.047,-2.014
0.946,0.051,0.629,0.549,8.728,-2.502
0.944,0.037,0.650,1.526,4.517,-2.686
0.956,0.021,0.679,3.052,-0.610,-2.014
0.942,0.008,0.707,4.578,-4.639,-1.038
0.891,-0.010,0.725,5.432,-7.141,-0.610
0.854,-0.034,0.730,5.432,-6.287,-0.183
0.850,-0.041,0.721,4.211,-2.441,1.038
0.838,-0.046,0.698,2.502,3.479,3.235
0.786,-0.061,0.661,0.549,10.742,4.883
0.753,-0.062,0.618,-1.160,17.151,5.127
0.758,-0.046,0.582,-2.075,22.034,5.371
0.771,-0.043,0.554,-2.136,24.597,6.653
0.771,-0.041,0.529,-1.465,24.048,8.911
0.767,-0.052,0.516,0.488,21.301,10.132
0.764,-0.062,0.517,3.113,17.090,10.071
0.744,-0.071,0.524,5.371,12.146,9.644
0.721,-0.084,0.535,7.141,7.690,10.498
0.699,-0.094,0.548,8.057,5.310,11.719
0.680,-0.098,0.562,7.690,5.432,13.123
0.661,-0.100,0.568,6.531,7.568,14.282
0.645,-0.102,0.569,4.639,11.108,14.709
0.643,-0.109,0.568,2.563,14.832,13.977
0.652,-0.125,0.563,-0.061,17.944,11.841
0.620,-0.111,0.561,-2.869,18.982,8.484
0.604,-0.106,0.560,-4.761,17.273,5.249
0.610,-0.106,0.565,-5.188,13.184,3.723
0.610,-0.099,0.567,-5.554,7.568,3.723
0.612,-0.098,0.576,-5.615,1.526,5.066
0.615,-0.097,0.586,-5.188,-3.479,6.714
0.631,-0.093,0.595,-4.761,-7.690,8.240
0.661,-0.086,0.602,-4.150,-10.376,9.705
0.694,-0.082,0.602,-3.418,-11.292,11.353
0.725,-0.075,0.594,-2.625,-10.193,12.329
0.761,-0.063,0.576,-2.258,-7.446,12.573
0.781,-0.041,0.549,-2.258,-3.967,11.841
0.780,-0.016,0.521,-2.563,-0.732,10.376
0.789,-0.007,0.494,-2.502,2.319,9.155
0.809,0.006,0.472,-2.686,4.395,8.057
0.828,0.017,0.452,-2.808,4.700,6.714
0.836,0.037,0.446,-2.869,3.235,5.371
0.821,0.037,0.446,-1.892,0.610,3.601
0.810,0.032,0.459,-0.916,-2.625,1.343
0.797,0.029,0.475,0.183,-6.836,-0.549
0.786,0.017,0.495,0.793,-11.292,-1.526
0.774,0.005,0.516,0.610,-14.404,-1.526
0.762,-0.007,0.543,-0.305,-15.930,-0.854
0.756,-0.022,0.566,-1.526,-15.564,-0.244
0.761,-0.038,0.585,-2.930,-13.245,0.000
0.766,-0.047,0.597,-4.639,-9.888,-0.183
0.776,-0.051,0.598,-6.226,-5.859,-0.366
0.787,-0.052,0.589,-7.629,-2.380,-0.488
0.796,-0.048,0.571,-8.667,0.488,-0.305
0.801,-0.043,0.550,-8.972,2.686,0.000
0.811,-0.038,0.530,-9.094,3.784,0.000
0.817,-0.034,0.515,-8.850,3.418,-0.305
0.823,-0.026,0.501,-8.667,1.770,-0.610
0.824,-0.028,0.490,-8.362,-0.305,-0.732
0.819,-0.032,0.483,-8.057,-1.953,-0.732
0.814,-0.034,0.480,-7.812,-3.052,-0.732
0.816,-0.038,0.480,-7.568,-4.028,-0.977
0.828,-0.043,0.485,-7.263,-4.822,-1.160
0.834,-0.052,0.493,-6.836,-5.493,-1.648
0.831,-0.063,0.500,-6.531,-5.615,-2.075
0.829,-0.072,0.503,-6.104,-5.859,-2.808
0.828,-0.080,0.510,-5.737,-5.615,-2.930
0.825,-0.085,0.514,-5.920,-4.639,-2.380
0.821,-0.087,0.514,-6.165,-3.296,-1.648
0.826,-0.085,0.513,-6.470,-2.136,-0.916
0.830,-0.081,0.511,-6.775,-0.854,-0.549
0.829,-0.078,0.505,-7.202,0.610,-0.366
0.827,-0.072,0.499,-7.507,1.953,-0.305
0.824,-0.069,0.489,-7.690,2.869,0.000
0.826,-0.065,0.482,-7.751,3.235,0.793
0.824,-0.060,0.477,-7.935,3.418,1.831
0.825,-0.057,0.474,-8.118,3.235,2.258
0.830,-0.054,0.473,-8.057,3.052,2.441
0.837,-0.056,0.474,-8.118,2.686,2.563
0.841,-0.058,0.478,-8.057,2.563,2.563
0.840,-0.063,0.483,-7.874,2.319,2.319
0.847,-0.069,0.490,-7.507,2.075,2.197
0.861,-0.074,0.497,-6.897,1.831,2.197
0.873,-0.081,0.501,-6.226,1.953,2.563
0.882,-0.086,0.503,-5.859,2.625,2.930
0.897,-0.086,0.507,-5.493,3.906,3.113
0.918,-0.084,0.507,-5.493,5.249,3.174
0.932,-0.088,0.513,-5.188,6.958,2.991
0.939,-0.092,0.519,-5.310,8.484,2.258
0.948,-0.094,0.533,-5.554,9.338,1.099
0.961,-0.084,0.554,-5.493,9.094,0.122
0.976,-0.078,0.586,-4.944,7.507,-0.549
0.982,-0.075,0.609,-3.601,5.615,-0.732
0.971,-0.076,0.635,-2.075,3.906,-0.671
0.947,-0.083,0.652,-0.854,3.296,-0.427
0.925,-0.087,0.665,-0.488,3.845,-0.366
0.902,-0.085,0.670,-0.427,5.554,-0.305
0.874,-0.082,0.677,-0.366,6.897,-0.732
0.876,-0.082,0.681,0.427,7.385,-1.221
0.881,-0.080,0.688,1.587,6.531,-1.404
0.872,-0.074,0.692,3.113,4.639,-1.160
0.854,-0.065,0.698,5.676,1.587,-0.854
0.829,-0.048,0.702,8.118,-1.465,-0.183
0.832,-0.037,0.703,10.498,-3.052,1.587
0.830,-0.030,0.703,12.268,-3.662,3.601
0.806,-0.008,0.699,12.756,-2.930,4.822
0.802,0.002,0.693,12.512,-1.465,4.883
0.784,0.020,0.688,11.414,2.014,3.845
0.750,0.038,0.677,9.705,6.348,2.563
0.728,0.045,0.663,8.301,10.620,1.465
0.716,0.051,0.647,7.141,14.465,0.977
0.702,0.058,0.629,5.981,17.761,1.160
0.683,0.070,0.611,4.761,20.142,1.343
0.658,0.076,0.595,4.150,21.606,1.221
0.641,0.078,0.576,3.845,22.522,0.732
0.624,0.079,0.564,3.540,22.522,-0.061
0.611,0.081,0.552,3.418,21.851,-0.610
0.583,0.081,0.540,3.357,20.386,-1.709
0.579,0.076,0.536,3.784,18.250,-2.930
0.571,0.071,0.534,4.028,15.259,-4.028
0.571,0.066,0.535,4.761,11.536,-4.272
0.580,0.061,0.536,5.127,7.446,-3.601
0.594,0.050,0.542,5.432,3.113,-2.014
0.621,0.043,0.552,5.737,-0.977,-0.244
0.652,0.039,0.561,6.042,-4.150,1.648
0.691,0.036,0.571,6.348,-7.629,3.418
0.729,0.033,0.579,7.019,-10.132,4.761
0.747,0.025,0.583,7.324,-10.925,5.798
0.765,0.015,0.582,7.141,-10.071,6.714
0.789,0.012,0.575,6.653,-7.629,7.996
0.797,0.013,0.559,5.798,-4.272,8.972
0.800,0.022,0.541,4.883,-0.732,9.399
0.806,0.031,0.523,4.028,2.625,9.766
0.815,0.045,0.506,3.357,5.371,9.705
0.819,0.059,0.494,3.235,6.897,9.094
0.805,0.064,0.484,3.723,6.958,7.812
0.789,0.057,0.489,4.272,6.470,6.226
0.793,0.063,0.496,4.639,4.272,5.005
0.786,0.051,0.504,5.920,1.709,3.906
0.764,0.039,0.520,7.751,-1.221,3.601
0.755,0.026,0.544,9.766,-4.089,3.723
0.779,0.027,0.568,10.986,-7.019,4.639
0.775,0.018,0.582,11.841,-8.911,6.226
0.769,0.019,0.591,11.841,-9.033,7.507
0.767,0.018,0.596,12.024,-7.019,7.996
0.773,0.013,0.596,11.719,-3.662,8.362
0.785,0.012,0.587,10.864,-0.122,8.545
0.801,0.019,0.571,9.827,3.357,8.667
0.816,0.026,0.553,9.460,6.104,8.728
0.831,0.038,0.535,9.338,7.080,9.033
0.831,0.051,0.519,9.460,6.958,9.521
0.821,0.063,0.501,9.644,5.737,9.888
0.815,0.071,0.489,10.010,4.395,10.315
0.812,0.077,0.477,10.071,2.869,10.376
0.801,0.079,0.471,10.010,1.892,10.132
0.806,0.081,0.473,10.010,0.977,9.949
0.810,0.078,0.474,9.766,0.244,9.460
0.804,0.068,0.474,9.766,-0.793,8.789
0.794,0.061,0.486,10.376,-1.709,7.874
0.789,0.056,0.496,10.803,-2.075,7.080
0.785,0.055,0.505,11.047,-2.197,6.836
0.776,0.050,0.511,11.230,-2.075,6.958
0.770,0.044,0.510,10.925,-1.282,6.592
0.777,0.044,0.510,10.498,0.549,6.042
0.790,0.054,0.511,10.071,2.808,5.615
0.794,0.062,0.510,9.888,4.272,4.639
0.800,0.066,0.509,10.071,4.883,2.808
0.814,0.064,0.508,11.047,3.967,1.221
0.822,0.071,0.507,11.780,2.380,0.732
0.819,0.079,0.508,12.268,0.732,1.343
0.817,0.088,0.505,12.634,0.122,2.502
0.822,0.098,0.501,12.512,0.427,3.418
0.833,0.106,0.500,11.780,1.953,3.784
0.838,0.108,0.497,10.559,4.150,3.113
0.836,0.110,0.494,9.338,6.104,1.709
0.847,0.112,0.491,8.118,7.385,0.671
0.860,0.110,0.491,7.385,8.118,0.610
0.870,0.111,0.493,6.714,7.935,1.038
0.873,0.109,0.496,6.348,7.202,1.221
0.875,0.100,0.500,6.287,5.737,1.038
0.879,0.096,0.503,6.165,4.272,0.427
0.880,0.091,0.512,6.287,3.357,0.061
0.881,0.086,0.522,6.409,2.808,0.061
0.886,0.080,0.527,5.737,2.869,0.244
0.897,0.078,0.533,5.066,3.967,0.366
0.908,0.075,0.537,4.395,5.493,0.549
0.915,0.074,0.539,3.540,7.080,0.488
0.926,0.073,0.543,2.625,8.301,0.244
0.934,0.069,0.550,2.258,8.789,-0.183
0.941,0.067,0.556,2.136,8.362,-0.488
0.947,0.060,0.568,2.502,7.385,-0.671
0.948,0.055,0.578,2.991,5.859,-0.732
0.943,0.048,0.591,2.991,4.333,-0.427
0.938,0.044,0.603,2.808,2.686,-0.305
0.934,0.037,0.621,2.808,0.916,-0.610
0.918,0.023,0.645,2.991,-1.099,-0.977
0.911,0.010,0.673,3.418,-3.113,-1.160
0.915,-0.007,0.698,3.784,-5.615,-0.916
0.910,-0.019,0.725,4.333,-7.568,0.061
0.878,-0.038,0.737,4.211,-8.301,1.709
0.841,-0.058,0.735,4.089,-6.836,3.052
0.837,-0.064,0.720,3.418,-3.296,4.578
0.829,-0.075,0.693,2.014,2.075,6.348
0.777,-0.095,0.652,0.244,8.667,7.690
0.766,-0.080,0.611,-1.221,14.465,7.141
0.789,-0.075,0.580,-1.709,18.738,6.714
0.796,-0.072,0.550,-1.038,20.813,7.629
0.802,-0.074,0.529,0.854,19.775,9.338
0.799,-0.086,0.528,3.662,16.907,10.315
0.802,-0.097,0.530,7.202,12.451,10.376
0.790,-0.112,0.541,10.925,7.446,10.376
0.751,-0.127,0.553,14.221,3.357,10.254
0.717,-0.139,0.569,16.785,0.305,10.620
0.697,-0.143,0.581,17.822,-0.732,12.207
0.669,-0.147,0.585,17.822,0.977,14.587
0.648,-0.152,0.584,16.235,4.944,16.846
0.640,-0.163,0.579,13.611,10.132,17.639
0.635,-0.160,0.568,9.399,15.381,16.602
0.626,-0.145,0.560,5.615,18.738,13.672
0.622,-0.144,0.554,2.502,19.714,10.681
0.618,-0.140,0.548,0.488,18.188,8.789
0.622,-0.135,0.548,-0.854,14.221,8.728
0.624,-0.135,0.553,-1.404,9.094,9.644
0.631,-0.125,0.560,-1.038,3.967,10.864
0.650,-0.116,0.567,-0.305,-0.488,11.780
0.668,-0.107,0.572,0.671,-3.479,12.024
0.688,-0.096,0.571,1.892,-5.310,11.719
0.716,-0.086,0.570,3.235,-5.798,11.047
0.739,-0.075,0.557,4.150,-5.005,10.315
0.768,-0.055,0.543,4.395,-3.174,10.010
0.772,-0.036,0.524,4.456,-1.343,9.399
0.787,-0.014,0.505,3.967,0.793,8.728
0.801,0.002,0.493,3.479,2.563,7.996
0.811,0.016,0.484,2.869,3.174,7.019
0.802,0.016,0.477,2.747,2.686,5.493
0.781,0.024,0.479,2.197,1.282,3.418
0.765,0.008,0.486,2.502,-0.122,1.526
0.750,-0.013,0.500,2.991,-1.648,0.061
0.746,-0.018,0.515,2.380,-2.869,-0.916
0.738,-0.031,0.531,2.197,-4.333,-1.160
0.739,-0.041,0.548,1.770,-5.432,-1.099
0.739,-0.048,0.560,1.404,-5.859,-0.793
0.735,-0.054,0.570,0.610,-5.493,-0.549
0.736,-0.057,0.576,-0.427,-4.272,-0.488
0.749,-0.056,0.574,-1.587,-2.747,-0.427
0.766,-0.055,0.568,-2.991,-1.465,-0.244
0.771,-0.045,0.556,-4.517,-0.122,-0.122
0.779,-0.032,0.540,-5.737,1.038,0.244
0.790,-0.025,0.525,-6.531,1.343,0.793
0.800,-0.015,0.508,-7.385,1.221,1.953
0.808,-0.009,0.494,-8.240,1.221,3.113
0.814,-0.010,0.483,-8.728,0.793,3.235
0.825,-0.012,0.473,-9.155,0.427,3.052
0.834,-0.012,0.473,-9.277,-0.244,2.258
0.839,-0.025,0.479,-9.094,-1.526,1.343
0.842,-0.033,0.487,-9.216,-2.502,0.671
0.839,-0.042,0.497,-9.033,-4.028,0.122
0.835,-0.050,0.503,-8.484,-5.310,-0.244
0.831,-0.058,0.512,-8.118,-5.859,-0.427
0.823,-0.063,0.516,-7.996,-5.127,-0.549
0.823,-0.066,0.517,-8.301,-3.601,-0.854
0.822,-0.067,0.515,-8.789,-1.770,-1.099
0.821,-0.069,0.511,-9.338,0.061,-1.770
0.824,-0.070,0.504,-9.644,1.709,-2.380
0.829,-0.070,0.499,-9.949,2.747,-2.502
0.829,-0.071,0.489,-10.193,3.113,-1.953
0.832,-0.064,0.484,-10.681,3.174,-1.343
0.836,-0.059,0.478,-10.925,2.991,-0.732
0.844,-0.055,0.479,-10.620,2.319,-0.305
0.841,-0.064,0.484,-10.376,1.404,-0.366
0.846,-0.068,0.487,-10.132,0.366,-0.427
0.856,-0.074,0.496,-9.949,-0.244,-0.366
0.855,-0.074,0.501,-10.193,-0.488,0.061
0.845,-0.076,0.506,-10.254,-0.549,0.610
0.846,-0.082,0.511,-10.193,-0.427,0.549
0.852,-0.085,0.512,-10.132,0.366,0.610
0.859,-0.087,0.514,-10.193,1.404,0.732
0.860,-0.087,0.514,-10.315,2.197,0.854
0.865,-0.088,0.518,-10.437,2.563,0.427
0.876,-0.089,0.527,-10.376,1.953,-0.122
0.892,-0.086,0.535,-9.644,0.305,-0.610
0.904,-0.086,0.552,-8.606,-2.014,-1.282
0.914,-0.087,0.569,-6.653,-4.822,-2.014
0.924,-0.090,0.588,-4.883,-7.996,-1.770
0.928,-0.090,0.602,-3.540,-9.644,-0.916
0.931,-0.092,0.615,-2.075,-9.705,-0.366
0.933,-0.095,0.626,-1.404,-8.240,-0.305
0.943,-0.095,0.634,-0.916,-5.615,-0.427
0.952,-0.093,0.636,-0.549,-2.808,-0.427
0.961,-0.089,0.634,-0.122,-0.122,0.061
0.962,-0.082,0.628,-0.061,2.563,0.488
0.951,-0.075,0.619,0.671,4.272,0.305
0.937,-0.066,0.613,1.831,4.761,-0.488
0.917,-0.054,0.611,3.052,4.456,-1.404
0.896,-0.046,0.613,4.089,3.540,-2.136
0.873,-0.039,0.623,5.188,2.075,-3.052
0.844,-0.032,0.636,6.165,0.244,-4.211
0.812,-0.024,0.651,7.202,-1.465,-5.066
0.778,-0.022,0.663,8.423,-2.319,-5.737
0.746,-0.021,0.674,9.399,-2.380,-5.920
0.723,-0.022,0.677,9.827,-1.221,-5.188
0.690,-0.015,0.677,9.460,2.014,-4.150
0.670,-0.009,0.668,8.789,6.531,-3.296
0.656,-0.002,0.655,7.874,11.414,-2.502
0.624,0.004,0.635,7.141,16.052,-2.380
0.620,0.007,0.612,6.714,19.653,-2.075
0.626,0.023,0.591,6.042,21.912,-1.404
0.601,0.035,0.575,5.554,22.583,-0.610
0.591,0.037,0.558,5.676,21.667,-0.122
0.595,0.042,0.549,5.798,19.653,0.122
0.593,0.047,0.544,5.737,16.785,0.305
0.586,0.052,0.544,5.432,13.184,0.488
0.592,0.057,0.545,5.127,8.972,0.488
0.607,0.057,0.552,5.798,4.395,0.488
0.621,0.063,0.559,6.287,-0.183,0.854
0.645,0.069,0.564,6.653,-4.028,2.136
0.670,0.072,0.570,7.019,-7.385,3.906
0.693,0.073,0.577,7.324,-10.193,5.432
0.720,0.078,0.584,7.080,-12.207,6.531
0.748,0.083,0.593,6.592,-13.733,6.958
0.777,0.087,0.599,6.531,-14.648,7.141
0.804,0.095,0.606,5.859,-14.893,7.324
0.817,0.098,0.605,5.371,-14.099,7.385
0.821,0.093,0.599,5.188,-12.207,7.324
0.824,0.088,0.591,4.822,-8.911,6.775
0.823,0.087,0.576,3.784,-4.456,6.409
0.819,0.084,0.557,2.197,-0.549,5.981
0.813,0.079,0.543,1.099,3.845,4.883
0.810,0.073,0.530,0.427,7.324,3.357
0.805,0.065,0.524,0.305,9.033,1.892
0.803,0.056,0.523,0.427,8.728,0.244
0.793,0.043,0.533,1.709,6.531,-1.343
0.780,0.029,0.548,3.845,2.563,-2.686
0.772,0.015,0.565,5.920,-1.709,-3.357
0.770,0.003,0.582,8.179,-4.944,-2.563
0.763,-0.008,0.595,9.399,-7.812,-1.038
0.739,-0.011,0.598,10.132,-8.484,0.610
0.721,-0.012,0.593,9.766,-6.287,2.319
0.708,-0.014,0.581,8.972,-2.686,3.723
0.721,-0.007,0.570,7.568,1.404,5.005
0.746,0.001,0.553,6.042,5.432,6.592
0.757,0.009,0.534,4.883,8.057,7.874
0.774,0.015,0.517,4.822,8.423,8.118
0.785,0.024,0.503,5.371,6.714,7.874
0.777,0.029,0.494,6.104,3.967,8.240
0.781,0.039,0.485,6.958,0.916,9.216
0.780,0.046,0.480,7.690,-1.465,10.193
0.784,0.054,0.476,8.484,-2.808,11.169
0.788,0.063,0.475,8.789,-3.540,11.719
0.790,0.063,0.473,8.667,-3.662,11.475
0.787,0.060,0.475,8.118,-3.235,10.437
0.788,0.057,0.480,7.874,-2.686,9.033
0.791,0.056,0.486,7.812,-2.319,7.812
0.793,0.055,0.493,7.812,-2.380,6.897
0.794,0.051,0.498,8.118,-2.747,6.653
0.800,0.044,0.506,8.728,-3.479,6.775
0.803,0.042,0.515,9.460,-3.967,6.531
0.804,0.039,0.521,10.376,-4.211,6.165
0.811,0.039,0.528,11.108,-3.906,5.493
0.818,0.042,0.531,11.658,-3.052,5.188
0.824,0.047,0.533,12.024,-2.258,4.639
0.828,0.051,0.533,12.085,-1.526,4.272
0.834,0.055,0.531,12.085,-0.549,4.028
0.841,0.063,0.530,12.085,0.549,3.845
0.843,0.070,0.528,11.841,1.343,4.272
0.847,0.079,0.530,11.414,2.258,5.005
0.855,0.086,0.534,10.986,3.296,5.737
0.860,0.085,0.540,10.498,4.272,6.165
0.864,0.086,0.548,9.705,4.517,5.981
0.877,0.086,0.559,8.911,4.822,5.676
0.882,0.085,0.572,8.240,5.005,5.310
0.880,0.085,0.583,7.874,5.066,5.310
0.884,0.088,0.587,7.690,5.371,6.165
0.887,0.092,0.594,7.263,6.226,7.935
0.912,0.097,0.596,6.287,7.874,10.254
0.915,0.101,0.600,5.066,9.949,12.024
0.921,0.100,0.605,4.150,11.719,12.390
0.940,0.102,0.609,3.418,12.634,11.414
0.961,0.102,0.617,3.296,12.329,10.620
0.967,0.103,0.631,3.540,10.986,10.803
0.958,0.096,0.652,3.540,8.728,10.925
0.938,0.072,0.679,4.211,5.737,9.827
0.952,0.036,0.719,5.127,1.587,7.263
0.972,-0.000,0.765,5.920,-2.441,4.761
0.912,-0.007,0.814,6.104,-6.897,2.502
0.868,-0.049,0.856,7.690,-11.658,1.160
0.825,-0.086,0.889,8.911,-14.526,1.221
0.783,-0.101,0.904,8.850,-14.526,2.930
0.751,-0.111,0.897,7.874,-11.169,6.531
0.765,-0.112,0.868,7.141,-4.639,10.986
0.728,-0.135,0.810,6.165,3.479,14.771
0.676,-0.139,0.741,3.662,13.306,16.602
0.685,-0.094,0.671,0.793,23.132,16.235
0.729,-0.061,0.614,-0.366,30.518,16.785
0.766,-0.037,0.559,-0.122,34.485,18.982
0.786,-0.026,0.520,1.282,34.607,20.752
0.797,-0.028,0.492,4.333,31.738,20.874
0.807,-0.023,0.482,8.118,27.466,19.714
0.821,-0.025,0.479,11.841,22.644,18.188
0.764,-0.037,0.486,14.709,18.433,15.930
0.750,-0.054,0.495,16.235,15.747,13.000
0.728,-0.090,0.503,16.968,14.832,9.644
0.693,-0.104,0.514,15.503,15.015,6.531
0.652,-0.113,0.527,13.306,15.930,3.418
0.629,-0.120,0.533,10.803,16.785,1.099
0.625,-0.130,0.540,7.568,17.029,-0.183
0.602,-0.117,0.545,3.784,16.724,-0.977
0.580,-0.107,0.550,0.732,15.991,-1.892
0.595,-0.131,0.559,-1.282,14.099,-3.174
0.602,-0.123,0.568,-4.089,11.414,-4.883
0.598,-0.114,0.577,-6.226,8.057,-6.348
0.601,-0.119,0.584,-5.859,4.456,-6.836
0.621,-0.119,0.588,-4.395,1.038,-5.798
0.648,-0.114,0.582,-2.625,-1.221,-3.235
0.680,-0.107,0.568,-1.343,-2.014,0.916
0.698,-0.096,0.547,-0.244,-1.099,4.456
0.718,-0.081,0.524,-0.305,1.465,6.104
0.740,-0.059,0.499,-0.366,4.456,5.981
0.757,-0.039,0.480,-0.610,6.897,4.944
0.774,-0.020,0.465,-1.038,8.606,4.639
0.785,-0.006,0.455,-1.221,8.240,5.127
0.803,-0.007,0.457,-0.793,6.226,5.066
0.817,-0.005,0.469,-0.488,3.113,3.845
0.795,-0.004,0.489,-0.183,-0.916,1.221
0.797,-0.015,0.509,0.183,-4.517,-1.038
0.803,-0.031,0.536,0.305,-7.935,-2.686
0.787,-0.052,0.559,-0.488,-9.705,-3.662
0.766,-0.068,0.575,-1.831,-9.766,-4.089
0.761,-0.079,0.582,-3.479,-7.507,-4.150
0.766,-0.086,0.583,-5.371,-4.150,-4.089
0.763,-0.085,0.574,-7.324,-0.305,-4.211
0.760,-0.090,0.561,-7.935,3.601,-4.578
0.767,-0.088,0.545,-8.179,6.042,-5.127
0.780,-0.072,0.526,-8.240,7.019,-5.127
0.786,-0.070,0.508,-7.812,6.653,-4.333
0.796,-0.064,0.494,-7.446,5.310,-2.991
0.803,-0.057,0.478,-7.446,3.540,-1.526
0.795,-0.054,0.461,-7.507,1.831,-0.732
0.792,-0.047,0.446,-7.629,0.549,-0.244
0.793,-0.048,0.441,-7.812,-0.061,-0.366
0.795,-0.045,0.439,-8.545,-0.732,-0.488
0.802,-0.045,0.442,-9.155,-1.587,-0.610
0.802,-0.052,0.451,-9.460,-2.441,-1.282
0.797,-0.061,0.461,-9.338,-4.028,-2.319
0.804,-0.069,0.475,-8.911,-6.165,-2.930
0.808,-0.076,0.490,-8.484,-8.362,-3.113
0.809,-0.083,0.503,-8.301,-9.827,-2.441
0.817,-0.090,0.516,-8.545,-10.193,-1.770
0.822,-0.093,0.525,-9.033,-9.521,-1.343
0.825,-0.090,0.531,-9.949,-7.324,-1.221
0.826,-0.085,0.526,-11.169,-4.272,-1.343
0.824,-0.082,0.518,-11.963,-1.465,-1.526
0.832,-0.081,0.515,-12.390,1.526,-1.587
0.843,-0.080,0.505,-13.000,3.845,-1.770
0.850,-0.079,0.500,-13.550,5.066,-2.014
0.859,-0.080,0.496,-13.794,5.127,-2.686
0.862,-0.083,0.499,-13.611,4.639,-3.540
0.858,-0.089,0.500,-13.245,3.418,-4.639
0.853,-0.096,0.502,-12.756,2.197,-5.188
0.855,-0.100,0.510,-12.329,1.099,-5.005
0.865,-0.102,0.516,-12.146,0.488,-4.211
0.863,-0.103,0.521,-11.841,0.671,-3.357
0.865,-0.103,0.524,-11.963,1.404,-3.113
0.873,-0.104,0.528,-12.024,2.502,-3.418
0.883,-0.106,0.533,-12.207,3.540,-3.601
0.888,-0.106,0.540,-12.634,3.784,-3.601
0.897,-0.103,0.551,-12.512,2.808,-3.723
0.911,-0.101,0.566,-12.146,0.610,-3.540
0.922,-0.100,0.586,-11.169,-1.892,-2.869
0.933,-0.107,0.606,-9.583,-4.150,-1.770
0.934,-0.113,0.624,-8.606,-6.470,-0.854
0.929,-0.113,0.633,-7.568,-7.263,0.305
0.922,-0.116,0.641,-6.714,-6.775,1.587
0.929,-0.119,0.641,-5.859,-5.127,2.930
0.939,-0.119,0.640,-5.615,-2.869,4.639
0.936,-0.119,0.630,-5.371,-0.427,6.165
0.926,-0.122,0.615,-4.639,2.197,6.714
0.919,-0.125,0.600,-3.723,4.211,6.470
0.910,-0.123,0.586,-2.747,5.188,5.798
0.900,-0.120,0.576,-1.709,4.761,5.066
0.883,-0.115,0.572,-0.427,2.991,3.784
0.863,-0.108,0.575,1.282,0.366,2.441
0.842,-0.098,0.586,3.235,-2.014,1.221
0.821,-0.086,0.601,4.822,-3.357,0.183
0.794,-0.070,0.620,5.920,-4.639,-0.305
0.767,-0.053,0.634,7.019,-4.089,-0.488
0.753,-0.050,0.642,7.935,-2.563,-0.610
0.732,-0.039,0.644,8.362,-0.305,-0.671
0.720,-0.026,0.639,7.935,3.235,-0.305
0.715,-0.010,0.630,7.324,6.836,0.244
0.695,-0.000,0.620,6.226,10.315,0.183
0.681,0.008,0.607,5.737,12.878,-0.061
0.680,0.014,0.594,5.554,14.709,-0.244
0.664,0.017,0.584,5.249,15.747,-0.427
0.645,0.018,0.573,5.127,15.991,-0.793
0.630,0.010,0.569,5.188,16.052,-1.465
0.622,0.009,0.567,5.188,16.174,-2.136
0.618,0.005,0.567,4.944,16.235,-2.686
0.613,0.000,0.567,4.822,15.808,-2.991
0.609,-0.002,0.564,5.127,14.465,-2.869
0.614,-0.009,0.566,5.737,12.390,-2.563
0.615,-0.007,0.565,6.409,9.827,-2.686
0.607,-0.001,0.567,7.385,7.019,-2.380
0.611,0.002,0.568,8.545,4.028,-1.465
0.614,0.011,0.566,9.155,0.977,-0.427
0.624,0.018,0.567,10.071,-1.465,1.526
0.641,0.024,0.569,10.742,-3.113,4.272
0.669,0.031,0.573,10.681,-5.005,7.385
0.711,0.043,0.583,10.742,-6.897,9.644
0.755,0.044,0.594,10.925,-9.094,11.108
0.773,0.027,0.603,11.536,-11.353,11.536
0.788,0.024,0.610,11.719,-12.695,11.169
0.804,0.019,0.613,11.597,-13.000,11.414
0.806,0.018,0.609,11.047,-11.414,12.634
0.809,0.018,0.599,9.705,-8.118,13.733
0.842,0.034,0.586,7.935,-4.150,14.160
0.838,0.043,0.570,6.836,-0.916,13.428
0.838,0.054,0.553,6.287,1.953,11.841
0.840,0.062,0.539,6.165,3.723,9.644
0.840,0.075,0.529,6.348,4.272,8.606
0.839,0.078,0.525,7.324,3.601,7.874
0.839,0.063,0.533,9.094,2.014,7.080
0.834,0.059,0.543,10.620,-0.488,6.226
0.832,0.048,0.555,11.658,-2.686,5.310
0.827,0.035,0.573,12.878,-5.066,5.310
0.817,0.023,0.584,13.428,-6.287,6.165
0.805,0.015,0.593,13.306,-5.859,7.080
0.797,0.008,0.597,12.207,-3.784,7.996
0.793,0.004,0.593,10.925,-0.671,8.240
0.791,-0.000,0.586,9.888,3.357,8.301
0.793,-0.004,0.573,8.789,7.080,8.301
0.795,-0.004,0.555,8.423,9.705,8.667
0.795,-0.003,0.537,8.545,10.864,9.216
0.792,0.000,0.519,9.155,10.437,10.132
0.787,0.009,0.505,9.888,9.338,10.986
0.779,0.018,0.494,10.559,7.996,11.902
0.770,0.024,0.485,11.169,6.714,12.146
0.773,0.026,0.480,11.597,5.371,12.146
0.764,0.032,0.473,11.841,4.089,11.719
0.764,0.044,0.468,11.902,3.479,11.597
0.766,0.042,0.470,12.390,3.357,11.658
0.772,0.045,0.472,12.207,3.174,11.475
0.776,0.050,0.469,11.902,3.235,10.681
0.780,0.048,0.469,11.963,3.357,9.583
0.794,0.052,0.470,12.146,3.418,9.094
0.805,0.059,0.471,11.902,3.662,9.155
0.809,0.068,0.472,11.658,3.845,9.277
0.815,0.073,0.473,11.597,3.601,9.155
0.825,0.076,0.474,11.902,3.418,8.667
0.833,0.078,0.476,11.902,3.113,8.850
0.839,0.079,0.477,11.658,2.808,9.216
0.841,0.075,0.478,11.414,2.625,9.766
0.856,0.084,0.487,10.864,2.502,10.376
0.868,0.085,0.493,10.376,2.869,10.681
0.872,0.081,0.499,9.460,2.808,10.559
0.873,0.071,0.501,8.789,2.930,10.132
0.874,0.060,0.507,8.423,3.235,8.911
0.881,0.055,0.516,8.240,3.906,8.179
0.885,0.050,0.520,7.935,4.639,7.996
0.891,0.045,0.526,7.812,5.249,7.935
0.901,0.041,0.531,8.118,5.676,7.507
0.905,0.037,0.538,8.667,6.042,7.141
0.911,0.035,0.547,9.583,6.104,6.531
0.915,0.033,0.557,10.559,6.348,5.615
0.913,0.035,0.562,11.108,6.653,4.700
0.920,0.040,0.570,11.353,6.897,4.395
0.919,0.045,0.576,11.414,7.751,4.456
0.914,0.051,0.582,10.925,8.362,4.578
0.914,0.057,0.589,10.315,8.789,4.028
0.915,0.058,0.598,10.010,9.155,3.662
0.909,0.060,0.606,9.460,8.911,3.418
0.912,0.065,0.615,8.484,8.728,3.845
0.918,0.067,0.629,7.568,7.874,4.211
0.915,0.066,0.645,6.897,6.409,3.418
0.901,0.053,0.668,6.714,4.089,2.014
0.900,0.040,0.694,6.958,0.854,0.732
0.898,0.021,0.723,7.019,-1.892,0.366
0.884,0.004,0.745,6.958,-3.845,0.854
0.861,-0.013,0.755,7.019,-5.432,1.404
0.842,-0.026,0.754,7.019,-5.371,2.075
0.823,-0.041,0.740,6.531,-3.113,2.747
0.793,-0.053,0.708,5.493,0.610,3.235
0.743,-0.072,0.670,4.089,6.042,3.235
0.739,-0.050,0.626,1.709,12.085,3.845
0.759,-0.041,0.590,0.732,17.517,5.554
0.783,-0.039,0.558,0.671,20.935,8.240
0.775,-0.035,0.527,1.526,21.240,9.827
0.786,-0.046,0.519,4.333,19.287,9.766
0.782,-0.057,0.517,7.446,16.113,7.874
0.772,-0.069,0.525,10.437,12.512,6.226
0.719,-0.094,0.531,13.062,9.460,5.554
0.708,-0.106,0.545,14.832,7.812,5.798
0.705,-0.116,0.553,15.198,8.240,7.141
0.701,-0.131,0.564,14.771,10.315,8.423
0.680,-0.137,0.566,13.611,12.939,8.118
0.665,-0.146,0.566,11.963,15.503,6.714
0.657,-0.152,0.561,10.376,17.273,4.883
0.649,-0.148,0.552,8.118,18.433,3.845
0.643,-0.152,0.545,5.737,18.311,4.211
0.634,-0.154,0.535,3.052,17.090,4.944
0.631,-0.144,0.529,0.671,14.954,4.944
0.652,-0.146,0.528,-1.099,12.024,4.578
0.664,-0.148,0.529,-2.136,8.423,3.906
0.669,-0.154,0.531,-2.197,4.761,2.563
0.684,-0.159,0.537,-1.221,0.977,0.977
0.703,-0.159,0.542,0.305,-1.831,0.427
0.718,-0.160,0.545,1.831,-3.723,0.977
0.738,-0.157,0.541,3.540,-4.761,1.953
0.759,-0.150,0.534,5.249,-4.578,2.747
0.777,-0.137,0.519,6.104,-3.235,2.869
0.785,-0.121,0.501,6.653,-1.282,2.502
0.782,-0.103,0.479,6.897,0.916,1.831
0.772,-0.086,0.459,6.897,3.113,1.465
0.777,-0.068,0.446,6.409,4.211,2.136
0.797,-0.053,0.439,5.737,4.333,3.174
0.804,-0.052,0.445,5.493,2.930,3.479
0.786,-0.050,0.452,5.005,0.183,2.258
0.780,-0.047,0.469,4.639,-2.686,0.488
0.788,-0.053,0.487,4.883,-5.615,-0.244
0.780,-0.069,0.502,4.272,-8.179,0.061
0.762,-0.081,0.513,2.808,-9.155,1.099
0.748,-0.089,0.525,0.977,-8.240,1.831
0.745,-0.099,0.535,-0.977,-6.104,1.648
0.756,-0.101,0.543,-2.625,-3.662,1.038
0.765,-0.103,0.540,-3.723,-2.014,0.854
0.770,-0.104,0.536,-4.150,-0.732,1.221
0.771,-0.100,0.528,-4.150,-0.244,1.892
0.779,-0.096,0.517,-3.845,-0.366,3.296
0.790,-0.094,0.500,-3.235,-0.854,4.822
0.796,-0.079,0.480,-3.174,-1.404,6.287
0.799,-0.071,0.462,-2.930,-1.587,7.080
0.798,-0.060,0.445,-3.235,-1.953,7.324
0.803,-0.051,0.432,-4.028,-2.319,6.897
0.810,-0.044,0.428,-4.944,-3.113,6.714
0.817,-0.040,0.426,-5.798,-4.517,6.531
0.822,-0.037,0.431,-6.409,-6.287,6.653
0.832,-0.040,0.441,-6.653,-7.507,7.080
0.846,-0.045,0.454,-7.080,-8.240,7.507
0.845,-0.048,0.463,-7.568,-8.362,7.446
0.848,-0.053,0.470,-7.935,-7.751,6.775
0.860,-0.058,0.478,-8.667,-6.470,6.287
0.870,-0.059,0.482,-9.338,-4.517,6.165
0.876,-0.060,0.483,-10.010,-2.625,6.165
0.880,-0.062,0.483,-10.864,-0.977,5.615
0.887,-0.066,0.482,-11.536,0.732,4.822
0.884,-0.063,0.486,-12.329,2.258,4.150
0.889,-0.078,0.490,-12.390,3.357,3.845
0.892,-0.087,0.497,-12.634,4.028,3.418
0.891,-0.096,0.500,-12.939,4.028,3.845
0.895,-0.106,0.508,-13.000,4.028,3.906
0.892,-0.116,0.519,-12.695,4.456,3.479
0.889,-0.126,0.525,-12.817,5.554,2.991
0.895,-0.134,0.532,-12.634,6.897,2.563
0.899,-0.135,0.536,-12.512,9.094,2.502
0.906,-0.133,0.539,-12.512,11.047,3.113
0.926,-0.125,0.542,-12.939,12.573,4.089
0.934,-0.113,0.544,-13.123,13.428,4.639
0.941,-0.102,0.550,-12.939,13.000,4.028
0.955,-0.096,0.564,-12.146,11.353,2.625
0.965,-0.089,0.575,-10.803,8.850,1.526
0.970,-0.084,0.591,-9.155,6.348,1.160
0.958,-0.078,0.604,-7.812,4.883,1.953
0.944,-0.073,0.616,-6.897,4.456,2.563
0.925,-0.075,0.628,-5.859,5.066,2.136
0.902,-0.078,0.637,-4.761,5.615,1.099
0.896,-0.077,0.649,-3.662,5.493,0.244
0.883,-0.069,0.658,-2.686,4.150,0.305
0.871,-0.061,0.666,-1.587,1.465,1.404
0.857,-0.054,0.673,0.549,-1.343,2.747
0.844,-0.045,0.678,2.808,-3.601,3.967
0.824,-0.024,0.681,3.967,-5.249,4.883
0.817,-0.029,0.677,4.883,-5.981,5.859
0.810,-0.029,0.674,5.310,-5.371,5.981
0.790,-0.007,0.668,4.822,-4.150,5.005
0.772,0.007,0.661,4.761,-2.502,4.028
0.756,0.025,0.654,4.578,-0.427,3.357
0.742,0.042,0.640,4.150,2.136,3.418
0.743,0.052,0.626,3.723,5.249,3.113
0.719,0.066,0.609,3.418,7.935,2.136
0.694,0.075,0.593,3.357,10.193,0.793
0.686,0.078,0.579,3.235,12.085,-0.427
0.673,0.083,0.570,2.808,13.489,-0.916
0.646,0.084,0.561,2.686,14.465,-1.221
0.634,0.083,0.559,2.625,15.076,-1.221
0.631,0.084,0.557,1.770,15.381,-1.404
0.605,0.084,0.553,0.977,15.198,-2.136
0.598,0.077,0.552,0.854,14.343,-3.540
0.605,0.076,0.557,0.732,12.634,-4.944
0.589,0.067,0.562,0.488,10.132,-5.554
0.607,0.057,0.571,0.183,6.775,-5.432
0.623,0.052,0.578,-0.122,3.357,-5.310
0.621,0.051,0.585,0.183,0.000,-4.944
0.630,0.051,0.589,0.916,-3.235,-4.089
0.656,0.048,0.593,1.770,-6.104,-1.953
0.677,0.048,0.589,2.197,-7.568,1.343
0.711,0.052,0.581,2.197,-7.507,5.127
0.730,0.058,0.567,2.075,-6.348,7.568
0.751,0.066,0.552,1.709,-4.700,8.423
0.773,0.076,0.531,1.282,-3.113,7.996
0.795,0.086,0.515,1.099,-2.136,7.507
0.803,0.091,0.499,0.793,-1.404,7.568
0.807,0.098,0.487,0.549,-0.671,7.812
0.814,0.113,0.482,0.000,-0.610,7.141
0.821,0.110,0.482,0.000,-0.793,5.920
0.818,0.094,0.488,0.732,-1.648,4.089
0.816,0.088,0.497,1.038,-2.625,1.709
0.810,0.081,0.510,1.709,-4.578,-0.488
0.795,0.073,0.526,2.686,-7.080,-1.282
0.792,0.060,0.547,3.784,-9.399,-1.282
0.798,0.049,0.566,4.517,-10.803,-0.671
0.799,0.037,0.584,5.249,-11.536,0.000
0.795,0.025,0.599,5.676,-10.742,0.549
0.794,0.018,0.602,5.676,-8.423,1.160
0.796,0.014,0.600,4.944,-4.883,2.747
0.804,0.007,0.591,3.967,-1.099,4.395
0.803,0.004,0.572,2.991,3.174,5.371
0.799,0.010,0.545,2.197,6.592,5.432
0.797,0.019,0.524,2.014,8.606,5.249
0.796,0.023,0.503,2.808,9.399,5.920
0.812,0.034,0.489,3.784,8.362,7.202
0.822,0.042,0.478,5.066,6.409,8.667
0.826,0.050,0.473,6.348,3.784,9.216
0.828,0.054,0.474,7.629,0.793,8.362
0.822,0.055,0.479,8.606,-1.709,7.141
0.827,0.058,0.487,9.521,-3.296,6.775
0.820,0.060,0.491,9.644,-4.211,7.263
0.812,0.063,0.494,9.399,-3.784,8.545
0.811,0.068,0.500,8.911,-2.502,9.399
0.810,0.074,0.501,7.874,-0.549,9.827
0.801,0.068,0.500,7.019,2.197,9.338
0.811,0.068,0.498,6.470,4.456,8.240
0.818,0.066,0.497,5.920,5.859,7.385
0.813,0.059,0.495,5.981,6.287,7.080
0.805,0.052,0.491,6.348,6.287,6.714
0.809,0.051,0.490,6.897,5.920,6.287
0.814,0.052,0.489,7.507,5.554,5.981
0.813,0.055,0.489,8.057,5.005,5.371
0.814,0.058,0.492,8.667,4.333,4.272
0.820,0.059,0.496,9.460,3.601,2.991
0.828,0.059,0.499,10.437,3.113,2.625
0.835,0.061,0.500,11.169,2.930,2.380
0.841,0.066,0.501,11.536,3.113,2.625
0.847,0.073,0.502,11.719,3.418,2.869
0.858,0.081,0.504,11.475,4.150,3.113
0.867,0.089,0.505,10.986,5.066,3.113
0.877,0.089,0.503,10.681,5.920,2.869
0.888,0.095,0.503,10.254,6.531,2.808
0.898,0.099,0.502,9.827,6.775,3.357
0.905,0.100,0.502,9.705,7.019,4.517
0.915,0.101,0.506,9.338,7.629,5.310
0.923,0.105,0.513,8.789,8.240,5.615
0.930,0.104,0.520,8.362,8.728,5.249
0.939,0.098,0.530,8.179,9.521,4.822
0.945,0.099,0.542,7.507,10.132,4.700
0.948,0.101,0.558,6.897,10.620,4.578
0.943,0.098,0.573,6.165,10.620,4.333
0.937,0.091,0.587,5.676,10.132,3.296
0.934,0.091,0.603,5.249,8.972,1.953
0.933,0.082,0.620,4.883,7.019,1.160
0.922,0.072,0.640,4.639,4.211,0.671
0.926,0.058,0.673,4.700,0.366,-0.183
0.913,0.042,0.711,5.371,-3.540,-1.221
0.904,0.017,0.752,6.592,-8.545,-1.953
0.893,-0.009,0.786,7.935,-12.817,-1.526
0.857,-0.037,0.807,8.728,-15.137,-0.366
0.829,-0.058,0.814,9.155,-14.221,1.709
0.844,-0.076,0.798,8.972,-10.071,4.578
0.798,-0.110,0.759,7.996,-3.601,7.446
0.742,-0.115,0.703,5.798,4.822,8.362
0.741,-0.076,0.646,3.052,14.526,8.118
0.775,-0.069,0.585,1.892,23.010,9.705
0.792,-0.065,0.535,1.282,28.442,11.963
0.792,-0.060,0.495,1.587,30.029,12.756
0.791,-0.063,0.479,4.150,27.832,11.414
0.800,-0.058,0.474,7.812,23.010,9.766
0.795,-0.078,0.479,11.658,16.663,8.972
0.773,-0.090,0.490,14.954,10.193,9.338
0.729,-0.104,0.504,17.151,5.127,10.742
0.705,-0.109,0.522,18.311,2.563,12.695
0.681,-0.113,0.540,17.578,2.502,14.526
0.656,-0.114,0.552,14.893,5.188,15.869
0.639,-0.121,0.558,11.169,9.094,15.381
0.637,-0.130,0.562,6.836,13.123,13.000
0.629,-0.112,0.564,1.953,15.625,9.460
0.621,-0.095,0.570,-1.892,16.113,6.531
0.615,-0.098,0.573,-3.967,14.343,5.005
0.607,-0.097,0.579,-5.615,11.047,4.517
0.599,-0.092,0.577,-6.653,6.714,4.883
0.613,-0.090,0.581,-6.409,2.380,6.409
0.628,-0.084,0.578,-5.920,-1.221,8.606
0.644,-0.076,0.574,-5.310,-2.563,10.681
0.677,-0.073,0.566,-3.723,-3.235,12.451
0.715,-0.066,0.554,-2.441,-2.441,12.573
0.752,-0.055,0.534,-1.892,-1.221,12.024
0.765,-0.035,0.509,-1.343,0.671,10.254
0.770,-0.025,0.482,-0.366,2.380,7.874
0.796,-0.023,0.458,0.793,2.930,5.676
0.801,-0.005,0.448,1.221,2.502,3.784
0.804,0.008,0.439,1.465,0.549,2.502
0.803,0.013,0.444,2.380,-2.075,1.160
0.803,0.008,0.457,3.357,-5.188,-0.183
0.797,0.002,0.473,3.723,-8.423,-1.404
0.774,-0.006,0.493,3.296,-11.230,-2.930
0.770,-0.017,0.510,2.686,-12.756,-3.784
0.771,-0.033,0.530,1.343,-12.634,-3.479
0.758,-0.047,0.545,-0.854,-11.047,-2.380
0.736,-0.061,0.557,-3.052,-8.240,-2.075
0.746,-0.074,0.556,-5.615,-5.005,-1.892
0.746,-0.086,0.551,-7.507,-2.075,-1.892
0.743,-0.088,0.545,-8.606,0.488,-1.648
0.759,-0.082,0.533,-8.911,2.014,-1.038
0.779,-0.081,0.525,-8.789,2.014,-0.244
0.791,-0.071,0.512,-8.423,0.671,0.244
0.803,-0.057,0.500,-8.057,-1.465,0.244
0.818,-0.049,0.493,-6.958,-3.113,0.061
0.830,-0.037,0.485,-6.531,-4.761,0.244
0.832,-0.026,0.475,-6.592,-5.981,0.916
0.834,-0.019,0.469,-7.080,-6.409,1.770
0.839,-0.010,0.464,-7.935,-6.165,2.075
0.854,-0.001,0.464,-8.789,-5.371,2.136
0.865,0.000,0.467,-9.583,-4.761,2.136
0.875,-0.001,0.472,-10.376,-4.761,2.258
0.886,-0.007,0.484,-11.169,-4.822,2.319
0.875,-0.018,0.491,-11.536,-5.188,2.319
0.884,-0.024,0.504,-11.963,-5.249,2.014
0.887,-0.035,0.517,-11.780,-4.639,2.014
0.885,-0.046,0.520,-12.024,-3.235,2.075
0.881,-0.055,0.519,-12.573,-1.770,2.197
0.879,-0.065,0.515,-13.000,0.977,1.953
0.878,-0.073,0.508,-13.489,4.150,1.709
0.873,-0.081,0.500,-14.221,7.263,0.916
0.868,-0.093,0.491,-14.282,9.583,0.000
0.874,-0.102,0.484,-13.916,10.559,-0.732
0.880,-0.107,0.481,-13.489,10.376,-1.465
0.880,-0.112,0.478,-12.329,9.277,-1.526
0.868,-0.129,0.477,-10.437,7.629,-1.221
0.864,-0.145,0.479,-8.789,6.226,-0.916
0.860,-0.156,0.479,-7.690,5.737,-0.610
0.855,-0.166,0.482,-7.141,6.348,-0.122
0.854,-0.173,0.481,-6.897,7.385,0.244
0.854,-0.180,0.481,-6.897,8.484,0.000
0.857,-0.182,0.481,-6.775,9.277,-0.366
0.864,-0.177,0.487,-6.531,9.155,-0.244
0.871,-0.167,0.498,-5.859,7.874,0.305
0.889,-0.155,0.510,-4.150,5.249,1.526
0.913,-0.157,0.535,-1.831,1.404,2.686
0.927,-0.147,0.550,0.244,-1.770,4.150
0.928,-0.141,0.568,1.953,-3.723,5.859
0.914,-0.132,0.576,2.930,-4.700,7.202
0.909,-0.131,0.584,3.967,-4.211,7.446
0.910,-0.133,0.589,5.127,-3.052,7.507
0.911,-0.137,0.592,5.554,-1.404,7.996
0.909,-0.137,0.588,6.287,0.854,9.155
0.904,-0.142,0.579,7.446,2.747,10.315
0.909,-0.154,0.570,9.399,3.784,11.719
0.907,-0.159,0.560,11.353,4.211,12.939
0.893,-0.157,0.554,13.489,3.601,13.489
0.880,-0.157,0.549,15.564,2.319,13.550
0.872,-0.154,0.552,17.822,0.305,13.184
0.861,-0.157,0.560,20.081,-1.526,13.000
0.844,-0.156,0.574,21.973,-2.502,12.878
0.825,-0.155,0.589,23.315,-3.296,12.756
0.803,-0.158,0.600,24.475,-3.540,12.634
0.787,-0.165,0.612,25.818,-3.052,12.573
0.773,-0.169,0.622,26.733,-2.380,12.634
0.752,-0.172,0.629,27.893,-1.709,13.428
0.734,-0.169,0.635,29.297,-0.244,15.198
0.711,-0.172,0.627,30.884,1.648,17.273
0.688,-0.181,0.625,33.081,3.967,19.714
0.674,-0.182,0.617,34.912,6.165,22.766
0.669,-0.170,0.607,36.987,8.057,26.489
0.662,-0.161,0.601,38.940,9.155,31.128
0.650,-0.152,0.597,40.771,9.705,35.583
0.647,-0.134,0.601,42.725,9.888,38.940
0.651,-0.109,0.607,44.495,9.460,41.565
0.660,-0.106,0.616,46.692,8.301,43.762
0.668,-0.105,0.630,48.889,5.920,45.105
0.674,-0.099,0.650,50.659,2.991,45.410
0.667,-0.091,0.668,52.124,-0.183,45.288
0.666,-0.080,0.684,53.589,-2.014,45.349
0.659,-0.082,0.695,54.993,-2.502,45.776
0.661,-0.073,0.696,55.298,-2.197,46.387
0.663,-0.057,0.693,55.115,-0.549,47.241
0.687,-0.033,0.684,54.749,2.136,47.424
0.708,-0.013,0.670,54.871,4.944,46.509
0.727,-0.002,0.657,55.725,6.348,44.434
0.747,0.004,0.645,56.946,6.287,42.114
0.760,0.012,0.636,58.167,4.822,39.917
0.773,0.016,0.631,59.937,2.136,38.330
0.788,0.020,0.633,61.584,-0.916,37.231
0.791,0.019,0.638,63.354,-2.747,36.743
0.791,0.021,0.642,64.697,-3.662,36.621
0.784,0.016,0.648,65.247,-3.235,36.743
0.770,0.010,0.648,65.063,-1.709,37.109
0.759,0.008,0.645,64.087,1.221,37.476
0.760,0.003,0.640,63.354,5.066,38.269
0.755,0.001,0.634,62.439,8.118,38.879
0.747,-0.001,0.630,61.646,9.888,39.917
0.732,-0.006,0.622,61.340,10.376,40.710
0.733,0.010,0.618,61.218,9.949,41.382
0.716,-0.012,0.617,62.378,9.216,42.480
0.699,-0.010,0.619,62.988,8.423,43.274
0.688,-0.008,0.620,63.416,7.629,43.396
0.685,-0.006,0.623,63.538,7.202,43.579
0.685,0.000,0.623,63.538,7.202,44.067
0.688,0.007,0.622,63.782,7.202,44.678
0.694,0.010,0.618,63.477,7.385,44.678
0.698,0.020,0.615,63.293,7.629,44.373
0.701,0.030,0.607,63.049,7.812,43.945
0.703,0.043,0.600,62.561,7.812,43.274
0.708,0.057,0.591,62.195,7.690,42.725
0.709,0.070,0.585,62.012,7.324,42.480
0.708,0.083,0.576,61.401,6.775,42.053
0.711,0.096,0.570,60.547,5.920,41.565
0.715,0.104,0.566,59.692,5.127,41.260
0.718,0.111,0.563,59.021,3.967,40.771
0.722,0.118,0.561,57.861,2.747,40.710
0.729,0.126,0.564,56.396,2.441,40.466
0.736,0.131,0.565,54.932,2.136,39.917
0.743,0.137,0.565,53.528,1.892,38.818
0.749,0.144,0.564,52.551,1.892,37.903
0.750,0.140,0.562,51.758,2.014,36.743
0.750,0.147,0.560,50.476,2.014,35.461
0.748,0.147,0.555,49.438,2.136,34.912
0.751,0.151,0.549,48.218,2.075,33.875
0.752,0.158,0.545,46.875,2.197,32.776
0.751,0.166,0.540,45.837,2.075,31.677
0.754,0.172,0.537,45.044,1.404,30.212
0.763,0.173,0.536,44.373,0.732,28.931
0.770,0.178,0.537,43.823,-0.488,28.015
0.778,0.182,0.540,42.847,-1.770,27.588
0.789,0.181,0.545,42.419,-2.380,27.527
0.793,0.182,0.553,41.260,-2.747,26.855
0.802,0.182,0.559,39.673,-2.625,26.245
0.811,0.180,0.564,38.147,-2.258,25.330
0.819,0.177,0.568,36.255,-1.404,24.719
0.826,0.173,0.567,34.485,0.244,24.597
0.831,0.165,0.567,33.081,1.526,24.353
0.835,0.157,0.565,31.555,3.113,23.987
0.843,0.150,0.563,30.212,4.761,23.499
0.854,0.144,0.562,28.870,5.554,22.644
0.863,0.134,0.565,28.198,5.737,21.729
0.873,0.121,0.568,27.710,5.859,20.569
0.891,0.114,0.570,27.161,5.859,20.264
0.901,0.109,0.570,26.428,6.592,20.325
0.893,0.106,0.566,25.391,7.690,20.447
0.882,0.110,0.563,23.743,8.972,20.142
0.908,0.109,0.563,22.522,10.437,19.836
0.934,0.108,0.564,22.034,11.475,19.958
0.948,0.110,0.561,21.545,11.658,20.386
0.942,0.108,0.562,21.179,10.864,20.447
0.929,0.099,0.566,21.179,8.789,19.470
0.942,0.086,0.587,21.057,5.676,17.151
0.928,0.069,0.620,21.606,0.732,14.526
0.933,0.002,0.670,23.865,-5.615,13.184
0.943,-0.012,0.733,25.208,-13.245,12.268
0.903,-0.028,0.787,26.672,-20.569,12.512
0.861,-0.083,0.831,29.358,-25.513,15.015
0.828,-0.133,0.851,29.724,-25.574,18.250
0.781,-0.159,0.842,27.710,-19.836,21.667
0.754,-0.169,0.813,24.658,-9.155,24.841
0.762,-0.183,0.761,21.484,3.418,27.893
0.726,-0.205,0.699,18.616,16.541,28.625
0.712,-0.195,0.634,15.747,27.039,26.611
0.725,-0.177,0.576,15.198,33.447,24.658
0.733,-0.159,0.523,16.846,35.522,24.353
0.724,-0.146,0.484,20.020,33.997,26.123
0.730,-0.141,0.462,24.048,29.785,28.137
0.746,-0.125,0.458,27.100,24.170,28.870
0.744,-0.117,0.468,29.663,16.907,27.588
0.730,-0.126,0.496,31.982,9.033,24.475
0.717,-0.118,0.533,33.386,1.526,20.569
0.730,-0.116,0.578,34.302,-3.845,18.372
0.722,-0.123,0.617,33.936,-7.446,19.043
0.706,-0.133,0.655,31.860,-8.118,20.630
0.697,-0.133,0.677,28.992,-5.615,21.179
0.697,-0.128,0.682,25.879,-1.038,20.447
0.700,-0.120,0.672,22.888,5.493,18.921
0.702,-0.111,0.652,20.569,12.512,16.724
0.706,-0.097,0.615,18.677,18.738,14.465
0.719,-0.085,0.575,18.250,22.583,12.695
0.724,-0.078,0.535,18.677,24.231,11.963
0.712,-0.061,0.495,19.165,23.499,11.658
0.712,-0.033,0.461,19.653,21.423,11.597
0.734,-0.021,0.439,21.240,18.799,12.085
0.740,-0.020,0.424,22.888,15.564,12.451
0.730,-0.022,0.418,23.926,11.719,11.963
0.734,-0.025,0.427,25.146,7.324,10.681
0.746,-0.035,0.445,26.245,2.502,10.010
0.747,-0.054,0.471,27.222,-1.831,10.071
0.744,-0.072,0.501,27.466,-5.676,10.193
0.735,-0.091,0.532,27.344,-9.155,10.681
0.723,-0.106,0.562,26.794,-10.559,11.292
0.710,-0.117,0.582,25.574,-9.705,12.207
0.710,-0.125,0.605,23.804,-6.897,13.184
0.725,-0.129,0.606,21.851,-2.869,13.977
0.725,-0.121,0.601,19.775,1.343,14.221
0.737,-0.110,0.585,18.982,5.798,13.977
0.747,-0.112,0.565,18.860,8.972,13.184
0.746,-0.099,0.538,18.433,10.010,13.000
0.753,-0.066,0.511,17.944,9.644,12.939
0.770,-0.047,0.493,18.616,8.240,13.916
0.788,-0.032,0.481,19.226,5.920,15.564
0.807,-0.020,0.472,19.470,2.625,16.602
0.818,-0.016,0.467,19.775,-0.610,16.724
0.829,-0.010,0.470,19.775,-3.113,16.418
0.836,-0.011,0.478,19.226,-5.432,16.113
0.845,-0.013,0.483,18.250,-6.897,16.418
0.855,-0.017,0.493,17.151,-7.141,16.663
0.861,-0.024,0.501,15.991,-6.470,17.212
0.862,-0.027,0.504,14.832,-5.005,17.700
0.856,-0.031,0.509,13.672,-3.052,17.578
0.854,-0.039,0.517,13.245,-2.014,16.541
0.854,-0.040,0.520,12.512,-1.343,15.625
0.845,-0.040,0.517,12.024,-0.549,15.381
0.834,-0.042,0.515,11.902,0.000,15.869
0.825,-0.040,0.512,11.658,0.916,16.541
0.821,-0.036,0.504,11.169,2.136,17.334
0.815,-0.033,0.500,10.559,3.662,17.761
0.813,-0.032,0.494,9.766,4.883,17.456
0.816,-0.030,0.488,8.972,5.676,16.724
0.821,-0.029,0.483,8.423,5.859,16.113
0.820,-0.021,0.481,7.874,5.615,15.991
0.822,-0.012,0.478,7.202,5.005,16.174
0.828,-0.009,0.479,6.836,4.822,16.785
0.833,-0.004,0.475,5.981,4.944,17.273
0.834,-0.002,0.474,5.005,5.432,17.029
0.837,-0.004,0.474,4.456,6.226,16.113
0.838,-0.006,0.471,3.479,7.263,15.442
0.840,-0.006,0.467,2.319,7.996,14.893
0.841,-0.008,0.464,1.526,8.423,14.282
0.846,-0.012,0.461,0.977,8.667,13.672
0.843,-0.012,0.460,0.427,8.362,13.000
0.841,-0.018,0.460,0.366,7.629,12.634
0.850,-0.025,0.459,0.488,6.653,12.634
0.859,-0.027,0.456,0.671,5.859,13.245
0.868,-0.027,0.454,0.732,5.310,14.160
0.881,-0.028,0.453,0.793,4.944,15.198
0.896,-0.024,0.450,0.732,4.944,15.686
0.912,-0.018,0.447,0.732,5.371,15.625
0.931,-0.011,0.443,0.793,5.554,15.564
0.942,-0.004,0.443,0.977,5.554,15.320
0.948,0.001,0.451,1.038,4.822,14.832
0.947,-0.004,0.467,1.465,2.991,13.550
0.953,-0.022,0.492,2.197,-0.183,11.475
0.974,-0.005,0.517,3.418,-4.150,9.399
0.986,-0.012,0.552,5.737,-9.399,8.789
0.992,-0.037,0.585,8.362,-14.832,10.193
0.981,-0.050,0.619,10.010,-19.470,11.780
0.962,-0.074,0.652,12.146,-22.461,13.062
0.967,-0.103,0.682,14.709,-23.621,13.367
0.973,-0.133,0.699,17.090,-22.583,13.916
0.959,-0.157,0.696,18.738,-19.104,15.442
0.945,-0.173,0.677,20.264,-13.123,17.578
0.917,-0.188,0.641,21.057,-5.310,19.897
0.872,-0.200,0.607,21.851,2.197,21.301
0.855,-0.197,0.566,22.888,9.277,21.973
0.849,-0.189,0.535,24.536,14.221,22.583
0.838,-0.172,0.512,26.611,16.296,23.437
0.806,-0.157,0.504,29.114,15.442,24.475
0.803,-0.136,0.503,31.738,12.146,24.719
0.770,-0.115,0.519,34.302,7.629,24.353
0.750,-0.104,0.542,36.926,2.991,24.353
0.730,-0.095,0.571,38.513,-0.183,24.353
0.697,-0.086,0.597,39.063,-0.977,24.719
0.674,-0.081,0.627,39.185,1.160,25.330
0.654,-0.080,0.644,38.147,6.042,26.123
0.637,-0.075,0.654,36.255,12.390,26.367
0.623,-0.070,0.654,34.302,19.531,26.428
0.609,-0.072,0.642,32.593,25.818,26.001
0.595,-0.073,0.627,31.799,30.457,24.719
0.593,-0.069,0.614,31.616,33.081,23.682
0.589,-0.068,0.601,32.349,32.715,22.888
0.577,-0.066,0.591,33.813,29.541,22.095
0.569,-0.055,0.587,35.889,24.170,20.874
0.563,-0.043,0.591,38.635,17.822,20.081
0.562,-0.046,0.601,41.687,10.315,19.470
0.583,-0.044,0.616,44.556,2.441,19.592
0.611,-0.048,0.631,47.852,-4.456,20.569
0.633,-0.058,0.644,51.270,-10.620,22.644
0.653,-0.066,0.660,53.955,-15.198,24.475
0.707,-0.067,0.671,55.847,-17.456,26.489
0.754,-0.062,0.675,56.641,-17.334,28.259
0.763,-0.055,0.666,56.396,-15.198,28.687
0.789,-0.048,0.651,56.091,-11.719,27.893
0.832,-0.037,0.632,55.847,-7.690,27.100
0.864,-0.019,0.609,55.115,-3.906,26.978
0.867,-0.004,0.583,54.565,-0.854,27.588
0.874,0.003,0.560,54.810,2.136,27.649
0.887,0.003,0.542,55.542,4.333,26.672
0.890,0.003,0.531,56.213,5.676,25.208
0.877,-0.003,0.528,57.129,5.859,24.658
0.860,-0.021,0.533,58.350,4.883,24.536
0.850,-0.038,0.546,59.753,3.296,25.085
0.847,-0.058,0.568,61.707,1.343,26.794
0.842,-0.074,0.593,62.988,-0.549,29.114
0.824,-0.087,0.615,63.843,-1.526,31.799
0.801,-0.105,0.633,64.209,-1.221,33.875
0.786,-0.118,0.644,64.331,0.610,35.583
0.779,-0.127,0.647,64.270,3.540,37.170
0.766,-0.139,0.638,63.904,7.324,39.612
0.747,-0.124,0.625,63.293,10.986,41.992
0.759,-0.133,0.605,63.904,14.282,43.396
0.756,-0.121,0.597,64.758,15.320,44.067
0.757,-0.109,0.573,65.613,15.015,45.898
0.762,-0.105,0.563,67.627,13.245,47.607
0.771,-0.094,0.564,70.068,10.132,48.828
0.778,-0.086,0.559,72.083,6.775,50.293
0.781,-0.076,0.561,74.280,3.662,51.392
0.784,-0.066,0.563,76.233,1.282,52.307
0.785,-0.055,0.564,77.332,0.061,53.894
0.786,-0.044,0.566,78.003,0.427,55.054
0.789,-0.034,0.566,78.186,1.526,55.847
0.791,-0.031,0.568,78.064,3.357,56.580
0.787,-0.033,0.571,77.881,5.066,56.885
0.780,-0.031,0.575,77.271,6.165,56.824
0.779,-0.026,0.581,77.209,6.775,56.458
0.779,-0.020,0.585,76.965,7.019,57.007
0.775,-0.017,0.591,77.393,7.080,57.434
0.772,-0.013,0.599,78.003,7.019,57.800
0.768,-0.007,0.607,78.674,6.958,58.228
0.761,-0.000,0.615,79.041,7.080,58.960
0.753,0.007,0.618,79.712,7.202,59.814
0.746,0.018,0.625,80.444,7.751,60.791
0.734,0.016,0.627,80.627,8.728,61.584
0.732,0.024,0.625,80.444,10.071,62.134
0.729,0.035,0.623,79.956,11.658,62.683
0.724,0.043,0.620,79.712,13.367,63.416
0.722,0.053,0.621,79.468,13.855,63.904
0.732,0.057,0.626,79.590,13.062,63.904
0.738,0.060,0.630,80.322,11.169,63.660
0.736,0.065,0.638,80.688,8.362,64.026
0.732,0.070,0.648,80.872,5.310,65.369
0.720,0.075,0.659,80.566,2.502,66.956
0.714,0.072,0.667,80.200,1.160,68.787
0.710,0.067,0.675,79.590,0.549,70.007
0.689,0.069,0.681,78.186,0.610,70.862
0.678,0.069,0.684,76.843,1.526,71.838
0.673,0.068,0.686,75.562,2.258,72.327
0.675,0.071,0.687,74.402,2.197,72.876
0.679,0.061,0.691,74.036,0.610,73.120
0.678,0.047,0.700,74.097,-2.014,72.266
0.678,0.028,0.712,74.768,-5.554,70.618
0.679,0.004,0.729,75.989,-9.644,69.275
0.690,-0.023,0.739,77.332,-12.512,69.519
0.689,-0.053,0.744,78.125,-13.184,70.740
0.678,-0.072,0.731,78.308,-11.230,72.083
0.705,-0.083,0.718,78.003,-7.385,72.571
0.698,-0.096,0.696,77.637,-2.869,71.411
0.694,-0.095,0.670,76.599,0.977,68.298
0.721,-0.090,0.647,76.050,4.944,64.209
0.751,-0.087,0.626,75.439,7.324,60.181
0.758,-0.086,0.611,75.134,7.446,56.824
0.765,-0.088,0.598,75.684,5.554,53.345
0.774,-0.094,0.595,76.660,2.686,49.744
0.777,-0.102,0.599,77.515,-0.488,46.692
0.770,-0.115,0.604,77.759,-2.319,44.678
0.784,-0.128,0.616,77.393,-3.052,42.908
0.783,-0.148,0.626,77.332,-2.808,40.955
0.773,-0.151,0.631,76.477,-2.319,38.696
0.770,-0.157,0.629,75.256,-1.770,36.682
0.769,-0.167,0.626,74.158,-0.366,34.790
0.774,-0.170,0.626,72.937,0.854,33.264
0.784,-0.177,0.630,72.083,1.160,32.410
0.791,-0.181,0.634,71.594,0.977,31.616
0.816,-0.177,0.639,71.045,0.427,31.372
0.811,-0.166,0.634,70.801,0.488,31.250
0.801,-0.152,0.626,70.801,1.282,31.189
0.798,-0.138,0.608,70.923,3.845,30.884
0.792,-0.123,0.589,70.801,7.263,30.518
0.777,-0.103,0.567,69.824,10.925,29.968
0.777,-0.082,0.546,69.092,13.794,29.419
0.797,-0.063,0.530,68.481,15.015,28.992
0.808,-0.044,0.523,67.993,14.404,29.175
0.796,-0.019,0.523,67.200,12.268,29.785
0.795,-0.004,0.528,66.345,9.216,30.457
0.795,-0.001,0.545,65.308,6.165,30.640
0.789,0.008,0.566,63.660,3.479,30.579
0.795,0.012,0.592,61.401,1.587,30.945
0.795,0.007,0.614,59.387,0.854,31.616
0.785,0.000,0.630,56.824,1.526,32.471
0.774,0.001,0.637,53.955,3.357,33.081
0.776,0.005,0.635,51.575,6.409,33.325
0.792,0.014,0.621,49.316,9.705,33.691
0.794,0.018,0.597,47.424,13.367,33.936
0.785,0.013,0.566,45.532,16.785,33.630
0.787,0.015,0.540,43.274,19.287,31.799
0.804,0.028,0.517,41.809,20.081,29.358
0.810,0.028,0.501,41.321,19.043,27.588
0.807,0.022,0.489,41.138,16.296,25.940
0.800,0.010,0.483,41.443,12.451,24.719
0.795,0.001,0.485,41.504,8.240,23.499
0.783,-0.016,0.491,41.260,4.150,22.827
0.785,-0.028,0.498,40.527,1.099,22.400
0.792,-0.041,0.507,39.734,-0.793,22.278
0.790,-0.054,0.518,38.330,-1.587,22.400
0.789,-0.066,0.529,36.377,-1.099,22.278
0.796,-0.076,0.539,34.119,0.244,22.522
0.799,-0.084,0.542,32.288,2.014,22.888
0.803,-0.089,0.548,30.701,3.784,23.010
0.807,-0.088,0.552,29.297,5.310,22.888
0.804,-0.085,0.551,28.381,6.409,22.400
0.803,-0.084,0.550,28.320,6.897,21.362
0.800,-0.083,0.548,28.625,7.080,20.325
0.792,-0.080,0.543,28.992,6.958,19.897
0.785,-0.076,0.537,28.931,7.080,19.897
0.780,-0.072,0.533,28.687,7.385,19.470
0.773,-0.068,0.531,28.076,7.568,18.494
0.770,-0.067,0.532,27.588,6.836,16.785
0.768,-0.071,0.536,27.954,5.493,14.954
0.759,-0.073,0.542,27.832,3.113,13.916
0.751,-0.067,0.548,27.649,0.427,13.916
0.758,-0.064,0.554,27.832,-2.075,15.198
0.762,-0.056,0.562,28.076,-3.906,16.907
0.763,-0.047,0.568,27.832,-5.798,18.433
0.767,-0.041,0.571,27.588,-6.775,19.470
0.781,-0.035,0.575,26.917,-6.531,20.325
0.789,-0.025,0.574,25.391,-5.188,21.362
0.793,-0.016,0.571,23.865,-3.845,22.095
0.807,-0.007,0.569,22.278,-2.747,22.583
0.822,0.003,0.566,21.179,-2.258,22.217
0.825,0.015,0.562,20.325,-2.258,22.156
0.823,0.021,0.562,19.653,-2.625,21.851
0.822,0.028,0.561,18.982,-3.296,21.606
0.822,0.034,0.563,18.433,-3.906,21.790
0.818,0.037,0.562,17.700,-3.906,22.156
0.816,0.038,0.565,16.785,-3.357,22.461
0.815,0.038,0.566,15.686,-2.258,22.278
0.816,0.034,0.567,14.526,-0.549,22.217
0.818,0.029,0.568,13.489,1.648,21.362
0.819,0.022,0.567,12.634,3.296,19.653
0.823,0.014,0.568,12.390,4.089,17.822
0.825,0.005,0.568,12.146,4.456,16.418
0.821,0.002,0.569,12.085,4.089,15.503
0.822,-0.001,0.568,12.146,3.357,14.526
0.817,-0.006,0.567,12.451,2.563,13.306
0.810,-0.010,0.563,12.451,2.014,12.085
0.798,-0.015,0.561,12.024,2.502,10.925
0.787,-0.008,0.557,11.353,3.113,10.010
0.785,0.001,0.552,10.132,3.967,9.705
0.789,0.008,0.545,9.583,4.578,9.888
0.796,0.015,0.538,8.850,5.188,9.949
0.798,0.019,0.529,7.874,5.432,10.254
0.801,0.022,0.525,6.958,5.310,10.132
0.803,0.022,0.525,6.287,4.578,9.521
0.805,0.021,0.528,5.615,3.357,8.362
0.805,0.020,0.530,5.249,2.197,7.629
0.802,0.017,0.533,4.944,0.977,7.507
0.802,0.014,0.533,4.578,0.305,7.385
0.798,0.012,0.536,4.272,0.366,7.385
0.792,0.009,0.536,3.845,0.610,6.836
0.789,0.007,0.535,3.296,1.038,5.920
0.790,0.003,0.535,2.930,1.648,4.944
0.787,-0.001,0.535,2.625,1.831,4.578
0.781,-0.006,0.533,2.075,1.770,4.639
0.779,-0.005,0.533,1.648,1.343,4.456
0.783,-0.002,0.534,1.465,0.854,4.639
0.782,-0.009,0.536,1.404,0.183,4.883
0.780,-0.013,0.541,0.732,0.000,4.822
0.779,-0.017,0.542,0.000,-0.122,4.883
0.786,-0.021,0.545,-0.183,-0.305,4.395
0.787,-0.030,0.545,-0.305,0.000,4.150
0.792,-0.032,0.543,-0.854,0.427,4.456
0.794,-0.032,0.536,-1.709,0.854,4.883
0.789,-0.033,0.531,-2.197,1.404,4.761
0.798,-0.033,0.524,-2.441,1.465,4.944
0.819,-0.031,0.528,-2.258,1.038,5.493
0.827,-0.026,0.524,-2.075,0.244,6.348
0.823,-0.025,0.524,-1.892,-0.977,7.202
0.818,-0.024,0.524,-1.221,-1.892,7.935
0.812,-0.023,0.523,-0.916,-2.075,8.240
0.807,-0.020,0.526,-1.282,-1.831,8.179
0.804,-0.015,0.523,-1.526,-1.526,8.301
0.806,-0.013,0.524,-1.709,-1.099,8.728
0.803,-0.012,0.525,-2.014,-0.732,8.850
0.802,-0.010,0.526,-2.197,-0.671,8.789
0.803,-0.008,0.527,-2.258,-0.793,8.667
0.805,-0.007,0.528,-2.258,-1.160,8.545
0.805,-0.003,0.529,-2.075,-1.526,8.728
0.803,-0.002,0.529,-2.075,-1.709,8.728
0.799,-0.001,0.527,-1.770,-1.831,8.728
0.796,-0.001,0.524,-1.953,-1.648,8.606
0.799,0.004,0.524,-2.014,-1.221,8.301
0.803,0.011,0.522,-2.258,-0.916,8.362
0.802,0.009,0.520,-1.953,-0.916,8.423
0.804,0.014,0.521,-1.404,-1.221,8.179
0.812,0.020,0.524,-0.977,-1.831,8.179
0.817,0.022,0.529,-0.427,-2.197,8.362
0.814,0.026,0.536,0.061,-2.625,8.362
0.815,0.030,0.542,0.549,-3.296,8.423
0.817,0.036,0.547,0.977,-3.845,8.484
0.818,0.040,0.551,1.282,-3.784,8.789
0.817,0.044,0.552,1.282,-3.357,9.094
0.816,0.049,0.551,0.854,-2.502,9.033
0.820,0.055,0.549,0.732,-1.953,8.667
0.820,0.057,0.547,0.793,-1.526,8.301
0.819,0.061,0.546,0.732,-1.038,7.996
0.816,0.063,0.543,0.916,-0.977,7.996
0.815,0.067,0.543,1.587,-1.038,8.118
0.817,0.069,0.546,2.075,-0.916,8.301
0.814,0.068,0.544,2.319,-0.549,8.850
0.814,0.069,0.543,2.625,0.000,8.667
0.815,0.065,0.543,2.869,1.160,8.118
0.821,0.063,0.542,2.991,1.892,7.568
0.823,0.061,0.541,3.357,2.747,7.141
0.821,0.060,0.538,3.784,2.808,6.714
0.820,0.062,0.535,4.395,2.563,6.775
0.819,0.062,0.535,4.883,2.197,7.080
0.818,0.067,0.536,5.188,2.014,7.507
0.818,0.069,0.536,5.676,1.526,7.935
0.821,0.068,0.541,6.104,1.099,8.179
0.826,0.069,0.543,6.470,0.977,8.301
0.826,0.069,0.544,6.531,1.038,8.606
0.824,0.069,0.546,7.141,1.587,9.033
0.823,0.069,0.547,6.958,2.563,9.277
0.823,0.070,0.547,6.836,3.784,9.277
0.826,0.070,0.548,6.836,5.005,9.216
0.829,0.071,0.548,6.836,5.615,8.667
0.830,0.072,0.549,7.446,5.859,8.301
0.832,0.073,0.552,8.118,5.676,8.118
0.832,0.074,0.555,8.789,5.127,8.423
0.830,0.076,0.556,9.155,5.066,8.911
0.829,0.076,0.561,9.399,5.005,9.033
0.830,0.076,0.565,9.521,5.249,8.667
0.828,0.076,0.568,9.888,5.676,8.057
0.827,0.076,0.569,9.949,6.165,7.629
0.827,0.075,0.569,10.254,6.897,7.812
0.827,0.075,0.567,10.193,7.751,8.423
0.825,0.076,0.565,9.949,8.972,9.155
0.823,0.076,0.563,9.949,9.888,9.460
0.822,0.077,0.558,9.705,10.620,9.277
0.821,0.077,0.557,9.949,11.047,8.789
0.819,0.076,0.554,10.071,11.108,8.545
0.818,0.075,0.551,10.193,10.803,8.972
0.814,0.074,0.551,10.132,10.681,9.766
0.809,0.075,0.547,9.644,10.315,10.193
0.809,0.076,0.549,9.644,10.193,10.193
0.813,0.076,0.552,9.644,9.827,9.888
0.811,0.074,0.554,9.583,8.972,9.521
0.807,0.073,0.555,9.521,8.240,9.338
0.806,0.071,0.556,9.277,7.751,9.338
0.803,0.072,0.553,8.911,7.690,9.460
0.800,0.070,0.548,8.423,8.484,9.338
0.799,0.069,0.544,8.057,9.583,8.911
0.801,0.067,0.538,7.507,11.047,8.301
0.801,0.063,0.532,7.080,12.268,7.507
0.800,0.061,0.526,6.836,13.000,6.409
0.795,0.058,0.519,6.592,13.123,5.859
0.788,0.053,0.512,6.836,12.695,5.310
0.788,0.054,0.508,6.958,12.329,5.066
0.790,0.055,0.505,7.141,11.475,4.761
0.787,0.053,0.506,7.324,10.437,4.395
0.791,0.052,0.510,7.324,9.399,3.845
0.788,0.048,0.512,7.385,8.362,2.991
0.783,0.041,0.518,7.507,7.507,2.319
0.783,0.036,0.522,7.446,6.531,1.953
0.783,0.033,0.527,7.568,5.859,2.136
0.781,0.029,0.529,7.507,5.493,2.502
0.781,0.026,0.531,7.324,5.493,2.869
0.783,0.025,0.530,7.080,5.798,3.174
0.785,0.024,0.527,6.348,6.775,3.418
0.789,0.025,0.522,5.859,7.263,3.296
0.799,0.029,0.519,5.493,7.568,3.235
0.803,0.031,0.513,5.249,7.507,3.296
0.803,0.031,0.509,5.188,7.019,3.113
0.807,0.033,0.506,5.127,6.409,3.113
0.808,0.033,0.504,5.371,5.798,3.113
0.807,0.032,0.503,5.432,5.188,2.930
0.806,0.031,0.503,5.249,4.700,2.747
0.804,0.030,0.504,5.188,4.333,2.319
0.804,0.028,0.506,5.066,3.662,2.075
0.805,0.026,0.509,5.066,3.296,1.587
0.807,0.022,0.514,5.127,2.686,1.526
0.810,0.022,0.520,5.249,2.258,1.770
0.811,0.020,0.527,5.127,1.892,1.831
0.811,0.018,0.532,4.883,1.770,1.648
0.808,0.017,0.537,4.517,1.831,1.709
0.803,0.016,0.535,4.395,2.319,1.953
0.802,0.016,0.531,4.211,2.869,2.075
0.796,0.015,0.523,4.028,3.845,2.563
0.793,0.015,0.516,3.662,4.456,2.747
0.796,0.016,0.508,3.418,5.188,2.686
0.798,0.015,0.502,3.052,5.249,2.747
0.795,0.012,0.500,2.991,4.944,2.441
0.798,0.012,0.499,2.869,3.845,2.075
0.805,0.016,0.501,2.808,2.197,1.709
0.812,0.017,0.504,3.235,0.488,2.014
0.809,0.016,0.509,3.845,-1.160,2.502
0.811,0.013,0.515,4.028,-2.014,3.052
0.812,0.011,0.521,4.150,-2.258,2.991
0.810,0.009,0.524,4.211,-2.258,2.808
0.811,0.008,0.523,3.906,-1.953,2.258
0.813,0.003,0.525,3.662,-1.160,1.770
0.814,0.002,0.527,3.235,-0.183,1.648
0.815,0.002,0.525,3.052,0.427,1.648
0.813,0.000,0.525,3.418,0.916,2.014
0.812,-0.000,0.524,3.418,0.916,2.197
0.813,-0.001,0.526,3.418,0.854,2.441
0.812,-0.000,0.528,3.235,0.732,2.380
0.812,0.000,0.530,3.357,0.671,2.502
0.813,0.000,0.532,3.540,0.183,2.686
0.814,0.000,0.533,3.540,0.122,2.930
0.815,-0.000,0.536,3.662,0.122,3.235
0.816,-0.001,0.536,3.784,0.305,3.357
0.815,0.000,0.536,3.723,0.671,3.296
0.815,0.000,0.536,3.906,1.160,3.357
0.816,0.001,0.536,3.845,1.465,3.479
0.817,0.004,0.533,3.723,1.587,3.540
0.817,0.005,0.530,3.784,1.953,3.662
0.818,0.005,0.529,3.662,2.136,3.662
0.818,0.005,0.529,3.479,2.197,3.723
0.818,0.007,0.527,3.357,2.014,3.601
0.820,0.006,0.527,3.540,2.075,3.540
0.814,0.007,0.525,3.235,2.075,3.357
0.805,0.008,0.523,2.869,2.014,3.357
0.803,0.010,0.521,2.869,2.136,3.357
0.804,0.012,0.518,2.747,2.319,3.784
0.802,0.013,0.515,2.686,2.258,3.906
0.800,0.014,0.513,2.441,2.075,4.150
0.802,0.014,0.512,2.502,1.709,3.967
0.807,0.013,0.512,2.625,1.160,3.601
0.812,0.014,0.516,2.686,0.488,3.357
0.807,0.010,0.521,2.747,-0.427,3.052
0.800,0.005,0.523,3.174,-1.404,2.686
0.797,0.002,0.528,3.174,-1.831,2.380
0.795,0.002,0.532,2.991,-2.014,2.258
0.793,0.002,0.532,2.747,-1.953,2.869
0.793,0.004,0.532,2.686,-1.282,3.235
0.793,0.006,0.531,2.258,-0.244,3.601
0.796,0.008,0.530,1.770,0.610,3.540
0.804,0.009,0.529,1.587,1.404,2.991
0.812,0.008,0.529,1.770,1.526,2.258
0.816,0.006,0.528,2.014,1.160,1.709
0.818,0.005,0.528,2.380,0.183,1.526
0.817,0.003,0.529,2.502,-0.732,1.709
0.817,0.003,0.532,2.808,-1.343,1.953
0.816,0.004,0.533,2.869,-1.892,2.258
0.815,0.005,0.533,2.930,-1.709,2.441
0.815,0.005,0.535,2.930,-1.160,2.441
0.814,0.004,0.534,2.625,-0.732,2.441
0.818,0.003,0.535,2.258,-0.061,2.502
0.821,0.003,0.536,2.197,0.488,2.563
0.826,0.001,0.538,2.319,0.793,2.319
0.826,-0.002,0.541,2.625,0.793,2.014
0.823,-0.006,0.542,2.563,0.610,2.014
0.822,-0.005,0.543,2.747,0.610,2.136
0.824,-0.005,0.541,2.502,0.732,2.380
0.825,-0.004,0.540,2.197,0.610,2.625
0.825,-0.003,0.538,2.258,0.488,2.380
0.824,-0.002,0.538,2.319,0.427,2.502
0.824,-0.001,0.536,2.075,0.305,2.808
0.821,-0.002,0.536,2.136,0.610,2.991
0.823,-0.004,0.538,2.136,0.977,3.235
0.824,-0.004,0.539,2.014,1.221,3.540
0.824,-0.006,0.538,2.014,1.648,3.784
0.820,-0.009,0.536,2.136,2.136,3.662
0.817,-0.012,0.529,2.136,2.869,3.479
0.818,-0.014,0.525,2.075,3.723,3.296
0.818,-0.017,0.521,2.197,4.395,3.174
0.817,-0.019,0.516,2.380,4.578,2.869
0.815,-0.024,0.513,2.869,4.395,2.502
0.808,-0.028,0.512,3.174,3.723,1.953
0.800,-0.029,0.513,3.418,2.869,1.648
0.798,-0.032,0.517,3.662,1.526,1.892
0.799,-0.037,0.523,4.089,0.183,2.380
0.799,-0.042,0.527,4.272,-0.732,3.357
0.798,-0.045,0.528,4.456,-1.282,4.150
0.801,-0.047,0.528,4.456,-1.343,4.700
0.803,-0.047,0.524,4.150,-0.671,5.249
0.805,-0.044,0.521,4.028,0.122,5.737
0.807,-0.043,0.513,3.906,0.610,5.920
0.809,-0.040,0.509,3.723,1.160,6.226
0.810,-0.038,0.505,3.906,1.282,6.287
0.812,-0.038,0.503,4.089,1.160,6.714
0.813,-0.039,0.505,4.272,0.549,7.080
0.813,-0.042,0.507,4.822,-0.488,6.836
0.813,-0.044,0.511,5.554,-1.648,6.897
0.817,-0.050,0.515,6.470,-2.197,6.897
0.812,-0.056,0.522,7.202,-2.563,7.080
0.808,-0.059,0.526,7.690,-2.686,7.629
0.804,-0.062,0.530,8.118,-2.502,7.629
0.799,-0.065,0.531,8.240,-2.380,7.385
0.798,-0.067,0.531,8.667,-2.197,7.263
0.798,-0.068,0.529,8.850,-1.770,7.874
0.794,-0.068,0.526,8.911,-0.916,8.667
0.793,-0.065,0.521,8.972,-0.305,9.521
0.795,-0.064,0.517,9.033,0.366,10.071
0.799,-0.063,0.514,9.216,0.244,10.132
0.802,-0.061,0.515,9.277,-0.671,9.705
0.806,-0.060,0.518,10.132,-1.709,9.338
0.812,-0.057,0.523,10.742,-2.686,9.399
0.810,-0.054,0.528,11.414,-4.028,9.827
0.810,-0.050,0.534,11.841,-5.188,10.437
0.813,-0.044,0.540,12.207,-5.371,11.047
0.812,-0.038,0.543,11.780,-4.822,11.475
0.813,-0.030,0.546,11.536,-3.601,11.597
0.817,-0.023,0.549,11.292,-2.380,11.475
0.818,-0.022,0.549,11.230,-1.709,11.047
0.820,-0.019,0.551,10.986,-0.977,10.437
0.823,-0.016,0.553,11.169,-0.916,10.010
0.824,-0.014,0.555,11.536,-1.526,9.705
0.818,-0.013,0.560,11.841,-1.953,9.583
0.815,-0.013,0.566,12.207,-2.319,9.583
0.810,-0.012,0.572,12.390,-2.319,9.521
0.802,-0.010,0.575,12.207,-2.197,9.583
0.792,-0.008,0.574,11.841,-1.648,10.071
0.793,-0.002,0.571,11.475,-0.366,10.925
0.793,0.005,0.568,11.169,1.160,11.536
0.792,0.013,0.564,10.681,2.319,11.658
0.794,0.019,0.562,10.315,3.113,11.414
0.798,0.021,0.559,10.132,3.113,11.108
0.795,0.018,0.557,10.254,2.869,10.864
0.792,0.018,0.558,10.010,2.319,10.498
0.795,0.020,0.561,9.888,0.916,10.437
0.797,0.024,0.563,10.071,-0.305,10.620
0.790,0.027,0.565,10.193,-1.343,10.803
0.785,0.029,0.567,10.132,-1.892,11.230
0.783,0.032,0.567,10.071,-1.465,11.475
0.781,0.031,0.566,9.583,-0.671,11.414
0.782,0.031,0.563,9.033,0.793,10.925
0.785,0.032,0.560,8.362,2.319,10.498
0.786,0.032,0.558,8.179,2.991,9.888
0.787,0.031,0.558,7.996,3.174,9.277
0.786,0.032,0.556,7.812,2.380,9.277
0.786,0.035,0.555,7.690,1.709,9.216
0.783,0.034,0.554,7.935,0.916,9.216
0.786,0.036,0.552,7.812,0.305,9.155
0.786,0.035,0.551,7.568,0.183,9.155
0.788,0.036,0.551,7.324,0.122,9.155
0.793,0.033,0.553,7.019,0.488,8.972
0.800,0.032,0.553,6.653,0.732,8.301
0.807,0.032,0.557,6.470,0.732,7.812
0.812,0.027,0.565,6.714,0.610,7.324
0.810,0.021,0.570,7.141,0.305,6.836
0.807,0.019,0.571,7.202,0.122,6.775
0.807,0.022,0.571,7.385,0.732,7.019
0.805,0.025,0.567,7.080,1.953,7.812
0.800,0.029,0.561,6.775,3.479,8.057
0.797,0.033,0.556,6.653,5.005,7.568
0.799,0.035,0.552,6.592,5.737,6.592
0.801,0.038,0.549,6.897,5.676,6.165
0.801,0.043,0.552,7.324,4.639,6.226
0.796,0.048,0.555,7.629,3.418,6.836
0.790,0.054,0.558,8.118,2.014,7.690
0.784,0.062,0.562,8.118,1.282,8.240
0.779,0.069,0.563,8.240,1.404,8.850
0.776,0.069,0.562,7.812,2.319,9.216
0.777,0.071,0.559,7.385,3.418,9.216
0.778,0.073,0.555,7.080,4.517,9.277
0.782,0.074,0.552,7.019,5.127,9.155
0.786,0.078,0.547,7.080,4.944,9.155
0.789,0.079,0.545,7.202,3.967,9.155
0.794,0.078,0.545,7.629,2.563,9.094
0.800,0.077,0.546,8.301,0.854,9.033
0.805,0.077,0.548,8.667,-0.549,9.033
0.808,0.076,0.552,8.850,-1.709,9.705
0.809,0.079,0.551,8.911,-2.136,10.132
0.813,0.079,0.552,9.033,-2.014,10.437
0.819,0.076,0.550,8.789,-1.343,10.681
0.821,0.075,0.546,8.301,0.122,10.681
0.824,0.075,0.540,7.935,1.526,10.315
0.826,0.074,0.535,7.812,2.747,10.437
0.825,0.074,0.530,7.751,3.357,10.437
0.821,0.076,0.526,7.935,3.296,10.559
0.814,0.079,0.524,8.179,2.502,10.742
0.808,0.085,0.523,8.423,1.526,11.047
0.804,0.084,0.526,8.850,0.427,11.108
0.797,0.085,0.529,9.155,-0.488,11.230
0.792,0.088,0.530,9.338,-1.038,11.414
0.786,0.093,0.533,9.216,-0.916,11.780
0.783,0.098,0.532,8.850,-0.305,12.024
0.781,0.099,0.529,8.484,0.549,12.085
0.782,0.101,0.525,8.301,1.526,11.719
0.786,0.103,0.524,7.996,2.197,11.108
0.789,0.105,0.521,7.874,2.014,10.498
0.793,0.106,0.516,7.690,1.709,10.071
0.797,0.105,0.515,7.629,0.916,9.766
0.796,0.104,0.511,7.446,0.183,9.521
