ax,ay,az
0.119072,0.015372,1.000400
0.127368,0.013908,1.000644
0.167872,0.001220,1.002108
0.178120,-0.005124,0.998692
0.153232,-0.006588,0.999668
0.130296,-0.000732,1.004792
0.119316,0.004148,1.015284
0.108092,0.009516,1.017968
0.101260,0.010736,1.020164
0.102968,0.008296,1.026996
0.106628,0.013908,1.029192
0.114436,0.022936,1.040904
0.117120,0.026840,1.019920
0.132004,0.021472,1.021628
0.142008,0.020496,1.017968
0.142496,0.020252,1.006256
0.136396,0.012932,1.009184
0.128588,0.012932,1.006500
0.118340,0.010980,1.006256
0.110288,0.008296,1.003084
0.109800,0.016348,1.000888
0.112240,0.024400,1.001132
0.119072,0.033428,0.997472
0.123464,0.032696,0.998692
0.127368,0.010980,0.988444
0.128832,-0.009028,0.984052
0.130784,-0.011468,0.991616
0.124440,-0.000732,0.996984
0.115900,0.007808,1.002596
0.111752,0.010736,1.009428
0.105408,0.020008,1.012844
0.101992,0.023912,1.012844
0.100772,0.036600,0.939156
0.095160,0.048068,0.961604
0.104920,0.039772,0.963556
0.113948,0.035624,0.976000
0.122732,0.027572,0.989664
0.125904,0.009516,0.995764
0.124196,-0.001708,0.980148
0.121024,-0.021960,0.984296
0.119804,-0.022692,0.991616
0.118828,-0.015616,1.013332
0.116632,-0.023668,1.031144
0.115412,-0.027328,1.049200
0.111752,-0.023668,1.048224
0.109312,-0.018788,1.033340
0.107360,-0.021960,1.009428
0.109068,-0.024400,1.000644
0.109556,-0.019032,1.000644
0.106628,-0.016348,1.011380
0.106872,-0.011224,1.023580
0.107604,-0.007320,1.026020
0.105896,-0.012688,1.021384
0.103700,-0.021960,1.020652
0.098088,-0.026352,1.012356
0.088816,-0.032696,0.999912
0.089548,-0.026108,0.996984
0.094184,-0.021472,0.996496
0.097600,-0.019520,1.001864
0.094672,-0.018056,1.009916
0.087108,-0.021472,1.002840
0.075884,-0.024888,0.995764
0.066612,-0.023668,0.978684
0.059536,-0.020008,0.963556
0.055632,-0.017568,0.956236
0.057340,-0.023180,0.959896
0.061488,-0.030256,0.968680
0.063196,-0.030256,0.973804
0.067588,-0.031232,0.978684
0.071736,-0.030500,0.980636
0.074420,-0.034892,0.980148
0.080764,-0.038796,0.984296
0.086620,-0.036844,0.985272
0.089304,-0.035380,0.982832
0.091500,-0.033916,0.980636
0.097844,-0.047824,0.983564
0.103944,-0.055632,0.996740
0.110532,-0.056608,1.010892
0.113216,-0.047824,1.019432
0.114680,-0.042700,1.018944
0.120048,-0.036600,1.018700
0.117608,-0.033916,1.020896
0.115900,-0.029768,1.016992
0.113948,-0.023912,1.005036
0.113948,-0.017568,1.000400
0.111020,-0.014152,1.000156
0.113704,-0.005612,0.994544
0.115168,-0.002928,0.985272
0.114680,-0.000732,0.977952
0.115656,-0.002928,0.979172
0.114192,-0.009516,0.989664
0.106140,-0.019032,0.999912
0.099308,-0.019520,1.003084
0.092232,-0.011956,1.004548
0.096136,-0.007320,1.004304
0.092232,-0.015372,1.005768
0.081496,-0.025620,1.011868
0.068808,-0.028548,1.024312
0.071736,-0.014152,1.029192
0.079788,0.000732,1.025776
0.051728,0.106140,1.095072
0.004880,0.096868,1.063352
0.017812,0.002684,0.983320
0.075152,-0.014396,0.935252
0.114680,-0.015616,0.919880
0.138348,-0.046116,0.980880
0.152256,-0.060756,1.044320
0.155428,-0.050752,1.062376
0.158356,-0.043920,1.034316
0.153232,-0.046848,0.996984
0.146400,-0.056608,0.965508
0.140788,-0.065392,0.943060
0.131272,-0.071492,0.934032
0.122976,-0.053924,0.944280
0.107604,-0.017080,0.993080
0.090524,-0.020984,1.000888
0.091256,-0.033916,1.001132
0.087108,-0.033672,1.000400
0.079300,-0.014396,1.000644
0.072224,-0.001464,1.010160
0.068808,0.004636,1.016504
0.070516,-0.009272,1.017480
0.081008,-0.041968,1.009184
0.092964,-0.061732,1.013820
0.101016,-0.061244,1.015528
0.104432,-0.056852,1.004548
0.086864,-0.067588,1.036756
0.084424,-0.114436,1.035780
0.178608,-0.063440,0.914024
0.213500,-0.044896,0.891332
0.180560,-0.061244,0.918660
0.132980,-0.072712,0.972828
0.092720,-0.066612,1.012600
0.074664,-0.066612,1.021384
0.089792,-0.070516,0.980880
0.107604,-0.068564,0.968192
0.118828,-0.070760,0.974780
0.122000,-0.074420,0.989420
0.119804,-0.075396,1.000644
0.114436,-0.070760,1.005036
0.111264,-0.066368,1.004548
0.109800,-0.065880,1.000156
0.114680,-0.092720,0.969656
0.116388,-0.071492,0.984784
0.124196,-0.058072,0.985516
0.128588,-0.060512,0.992348
0.130052,-0.070272,0.999180
0.129320,-0.072712,0.998692
0.128588,-0.066612,0.996984
0.127124,-0.064660,0.997960
0.127612,-0.062464,0.998448
0.130784,-0.058560,1.000400
0.132004,-0.053680,1.000400
0.127856,-0.049532,1.003572
0.125904,-0.045872,1.001864
0.122488,-0.045140,1.000400
0.120292,-0.044652,1.000156
0.118584,-0.045628,1.000888
0.119560,-0.044164,1.006744
0.120536,-0.046604,1.010404
0.121268,-0.043188,1.017724
0.121024,-0.039772,1.019432
0.121268,-0.042456,1.017968
0.120536,-0.043188,1.020652
0.118584,-0.044652,1.016992
0.114680,-0.046604,1.017968
0.115656,-0.049532,1.011624
0.114192,-0.056852,1.009672
0.114436,-0.061488,1.003572
0.114680,-0.061976,1.000644
0.112728,-0.062708,0.999668
0.115656,-0.059292,0.996496
0.117364,-0.057096,1.000400
0.124684,-0.041968,1.000400
0.126880,-0.037088,0.995520
0.130784,-0.034404,0.993080
0.129808,-0.028060,0.994788
0.133224,-0.025864,0.998692
0.134688,-0.027816,1.000400
0.135664,-0.027572,0.996008
0.129564,-0.026840,0.987224
0.129076,-0.028060,0.984052
0.128344,-0.034404,0.989176
0.129320,-0.037820,0.999668
0.135420,-0.035624,1.001864
0.137860,-0.030500,1.000644
0.141276,-0.023912,0.987712
0.142496,-0.015128,0.969900
0.145668,-0.011224,0.953308
0.151524,-0.011956,0.939644
0.148352,-0.008784,0.922076
0.148108,0.006832,0.908900
0.152744,-0.017324,0.906216
0.157624,-0.012932,0.907924
0.194712,-0.096868,0.957944
0.232288,-0.090768,0.954040
0.214964,-0.101504,0.900848
0.158600,-0.132980,0.913292
0.103700,-0.166408,0.988444
0.090280,-0.178120,1.042612
0.113948,-0.123220,1.047004
0.143472,-0.054656,1.035780
0.185196,-0.059536,1.001376
0.190808,-0.068320,1.012844
0.169580,-0.047336,1.000400
0.139080,-0.036112,0.982832
0.113460,-0.047336,0.985760
0.101504,-0.057584,1.003328
0.104920,-0.058072,1.020896
0.118340,-0.059048,1.028216
0.133712,-0.061732,1.024068
0.140544,-0.062220,1.018456
0.135176,-0.060268,1.040904
0.114436,-0.054168,1.057496
0.112240,-0.050020,1.064084
0.112484,-0.041968,1.057984
0.111752,-0.040748,1.040660
0.110776,-0.040748,1.023336
0.105896,-0.039528,1.014796
0.104188,-0.035136,1.015528
0.103456,-0.030012,1.024312
0.104188,-0.027816,1.027240
0.108092,-0.026840,1.024556
0.110044,-0.028060,1.023580
0.108580,-0.032208,1.012600
0.109312,-0.036844,1.000888
0.114192,-0.040748,0.994788
0.120292,-0.037820,0.969412
0.131516,-0.032452,0.935740
0.142740,-0.031964,0.916220
0.164944,-0.045384,0.970876
0.171532,-0.047824,0.998936
0.177388,-0.044164,0.994788
0.176168,-0.035136,0.980636
0.174948,-0.030988,0.970144
0.177632,-0.024644,0.972828
0.177876,-0.017812,0.984052
0.175192,-0.017812,0.998692
0.171776,-0.030744,1.011380
0.165188,-0.055876,1.032364
0.154452,-0.089060,1.041880
0.140788,-0.102480,1.027484
0.137860,-0.076128,0.995032
0.143228,-0.043188,0.965996
0.143228,-0.035868,0.970632
0.138348,-0.059536,0.992104
0.126636,-0.087596,1.004548
0.115656,-0.093940,1.009916
0.094916,-0.071248,1.000888
0.095892,-0.066856,1.000400
0.100040,-0.067832,1.000156
0.101504,-0.068076,1.000156
0.099796,-0.066856,1.000400
0.096380,-0.067588,1.000400
0.096136,-0.069296,1.000644
0.096624,-0.069540,1.002352
0.097600,-0.070272,1.006012
0.097112,-0.067344,1.010892
0.097844,-0.060024,1.015284
0.098332,-0.055144,1.010648
0.098820,-0.052216,1.005768
0.099064,-0.051484,1.000156
0.096380,-0.052460,0.991372
0.097356,-0.050996,0.984540
0.097112,-0.049532,0.985272
0.102480,-0.050264,0.994544
0.106140,-0.054656,0.937936
0.101504,-0.062464,0.996008
0.092964,-0.061000,0.987956
0.087108,-0.062708,0.980392
0.082960,-0.060024,0.979172
0.077592,-0.056608,0.979416
0.072224,-0.049776,0.975756
0.070516,-0.045628,0.974536
0.068564,-0.047824,0.978196
0.068564,-0.050020,0.985516
0.062464,-0.048800,0.986004
0.055876,-0.044896,0.986004
0.052216,-0.039772,0.985760
0.050996,-0.039284,0.983808
0.053924,-0.038552,0.979416
0.060024,-0.043676,0.976488
0.066368,-0.048556,0.981368
0.063928,-0.053924,0.993568
0.060268,-0.054656,1.005768
0.057340,-0.055632,1.024068
0.057828,-0.058804,1.024800
0.060756,-0.054168,1.029680
0.064904,-0.047092,1.026752
0.193004,-0.315004,0.843020
0.141276,-0.075884,1.079212
0.107360,0.041480,1.004060
0.088328,0.008052,1.008452
0.076372,-0.033184,1.008208
0.062708,-0.037576,0.973560
0.040992,-0.042944,0.843020
0.059780,-0.081740,1.021140
0.065636,-0.063684,1.066768
0.073200,-0.054900,1.006256
0.089548,-0.055144,0.997472
0.091988,-0.050996,1.015284
0.091988,-0.050264,1.008208
0.090524,-0.052216,0.993812
0.089548,-0.060512,1.000400
0.087596,-0.056120,0.993812
0.101260,-0.038796,0.985272
0.103700,-0.034892,0.983808
0.103944,-0.033916,0.980392
0.104676,-0.032452,0.975024
0.100284,-0.042456,0.972828
0.097600,-0.046116,0.971120
0.097112,-0.043920,0.968924
0.098820,-0.036600,0.969900
0.100284,-0.030256,0.971852
0.102724,-0.030988,0.972584
0.107848,-0.039284,0.971364
0.111020,-0.018300,0.940132
0.111752,-0.019520,0.923784
0.109800,-0.045140,0.925004
0.111020,-0.065148,0.933056
0.114924,-0.074420,0.952820
0.123464,-0.077836,0.951844
0.126636,-0.076128,0.950136
0.129320,-0.069540,0.951356
0.125416,-0.050752,0.973804
0.124440,-0.060756,0.990884
0.122732,-0.070028,1.000156
0.125660,-0.067588,0.995520
0.132004,-0.057828,0.988444
0.139080,-0.052216,0.988200
0.138104,-0.053680,0.986980
0.140300,-0.052704,0.984296
0.139568,-0.053924,0.979904
0.140056,-0.053924,0.978684
0.143472,-0.054900,0.977708
0.146888,-0.058804,0.978196
0.143716,-0.064660,0.974780
0.134932,-0.077836,0.972584
0.123952,-0.095404,0.982344
0.119560,-0.106628,0.999668
0.118340,-0.102480,1.009428
0.113948,-0.090036,1.007232
0.119804,-0.077836,1.000400
0.131272,-0.075884,1.000156
0.167384,-0.067588,0.986736
0.245464,-0.127124,1.045540
0.221308,-0.031476,1.017724
0.150060,0.012932,1.001132
0.084180,-0.064660,1.001376
0.067100,-0.134200,1.027972
0.085644,-0.141032,1.052372
0.106384,-0.103944,1.071892
0.115656,-0.062952,1.080676
0.113704,-0.034648,1.062620
0.108580,-0.019764,1.045540
0.108580,-0.021228,1.040904
0.112484,-0.032940,1.044564
0.117120,-0.047580,1.039684
0.124684,-0.056852,1.027728
0.127124,-0.062220,1.016016
0.126392,-0.065880,1.005036
0.124440,-0.069052,1.007964
0.122000,-0.067344,1.003572
0.123464,-0.067100,1.002108
0.123952,-0.059780,1.001864
0.124928,-0.051972,1.005280
0.123952,-0.045628,1.006500
0.120780,-0.044652,1.004304
0.120048,-0.049532,1.007964
0.118584,-0.052216,1.002840
0.116632,-0.049288,1.001620
0.117852,-0.047092,0.995032
0.118828,-0.048312,0.978196
0.114436,-0.048800,0.963068
0.107604,-0.045384,0.964044
0.109556,-0.040504,0.977464
0.111996,-0.036112,0.985272
0.112728,-0.034160,0.980148
0.115900,-0.030988,0.978440
0.126636,-0.023912,0.981124
0.119316,-0.015372,0.964776
0.097112,-0.021472,0.964044
0.080276,-0.030988,0.994788
0.084912,-0.030500,1.013576
0.103944,-0.020252,1.008208
0.130784,-0.008784,0.985272
0.155428,-0.010980,0.962824
0.165432,-0.014640,0.956724
0.168848,-0.028304,0.956724
0.205448,-0.023668,0.965020
0.273036,0.001220,1.025776
0.271328,-0.022692,1.009916
0.203008,-0.058316,0.953308
0.131272,-0.084424,0.914512
0.081252,-0.092476,0.945500
0.067100,-0.075396,1.003084
0.071492,-0.044164,1.037976
0.089792,-0.019276,1.006744
0.140300,-0.032208,1.000644
0.149816,-0.036600,1.001132
0.159576,-0.021960,1.015772
0.176656,-0.003416,1.021384
0.182756,0.000488,1.007232
0.176168,-0.001464,0.993812
0.160064,-0.008052,0.979660
0.143716,-0.015372,0.977952
0.138592,-0.010248,0.985516
0.142984,-0.002684,0.999668
0.150792,-0.003416,1.004548
0.156404,-0.014396,1.015040
0.155916,-0.024400,1.007964
0.155428,-0.022936,1.001132
0.152012,-0.022448,1.001620
0.142252,-0.021716,0.997228
0.132492,-0.016592,0.966728
0.130540,-0.017324,0.945256
0.151280,-0.019032,0.958676
0.160064,-0.017324,0.979660
0.162016,-0.024644,0.987224
0.162016,-0.026840,0.981612
0.159332,-0.010980,0.959164
0.153720,0.001220,0.941596
0.150792,0.000244,0.955992
0.148352,-0.012932,0.978928
0.151036,-0.024400,0.988688
0.149816,-0.025132,0.985028
0.145668,-0.020984,0.982588
0.144448,-0.020740,0.984784
0.147132,-0.026108,0.988444
0.149084,-0.036112,0.993568
0.150792,-0.042212,1.000400
0.150304,-0.044408,1.003328
0.152988,-0.046848,1.001620
0.150792,-0.046116,1.005524
0.147132,-0.054412,1.016016
0.143472,-0.058560,1.026752
0.137616,-0.055388,1.031876
0.134932,-0.052460,1.034072
0.135420,-0.050996,1.031144
0.141764,-0.047580,1.023824
0.148840,-0.050996,1.007720
0.158112,-0.049532,0.995520
0.159088,-0.045140,0.980636
0.165676,-0.043432,0.975512
0.173240,-0.045872,0.978440
0.176656,-0.056364,0.982100
0.174704,-0.064904,0.987712
0.173972,-0.065880,0.986004
0.173240,-0.058804,0.976244
0.166164,-0.050508,0.969900
0.163236,-0.046116,0.966240
0.164212,-0.047824,0.971364
0.168604,-0.048556,0.977220
0.163968,-0.043188,0.978928
0.163968,-0.045872,0.978684
0.168116,-0.042944,0.976732
0.162016,-0.031964,0.983076
0.154696,-0.039528,0.994788
0.145424,-0.002196,1.049688
0.152500,-0.055632,1.061644
0.266448,-0.464576,0.621468
0.229604,-0.074176,0.779580
0.149084,0.148840,0.892308
0.147620,0.061000,0.964776
0.184220,-0.031476,1.015772
0.180804,-0.051972,0.971364
0.154208,-0.035136,0.936472
0.134444,-0.025620,0.925248
0.136396,-0.035136,0.984296
0.152012,-0.035624,0.968924
0.155916,-0.035624,0.976244
0.153476,-0.032940,0.980636
0.148108,-0.034160,0.984052
0.144448,-0.038796,0.989420
0.144936,-0.039772,1.000400
0.142740,-0.038064,1.000888
0.139812,-0.032452,0.999180
0.144204,-0.034648,0.996984
0.147376,-0.037332,0.996740
0.145424,-0.042700,0.999424
0.141520,-0.046116,1.001864
0.138104,-0.049044,1.006744
0.135908,-0.051728,1.004304
0.133468,-0.051484,1.002108
0.136640,-0.050508,1.004060
0.136396,-0.050508,1.006744
0.134200,-0.049288,1.000888
0.135420,-0.045872,1.000400
0.137372,-0.054900,1.003572
0.137372,-0.054900,1.007476
0.143472,-0.048800,1.002596
0.153232,-0.042212,1.001132
0.149084,-0.043188,1.000400
0.142252,-0.055144,1.000644
0.137860,-0.061976,1.000400
0.137372,-0.067100,1.000400
0.141032,-0.064172,1.001132
0.142740,-0.062464,1.000156
0.141520,-0.055632,0.987468
0.143960,-0.048068,0.978196
0.144692,-0.045384,0.971120
0.145180,-0.049288,0.971120
0.143472,-0.055876,0.972584
0.141520,-0.058560,0.967460
0.139568,-0.061244,0.960872
0.140788,-0.062220,0.974048
0.144692,-0.066368,0.983320
0.142496,-0.072956,0.991372
0.137372,-0.076372,0.994056
0.137860,-0.076372,0.995276
0.134932,-0.076128,1.000156
0.133224,-0.086132,1.002840
0.126636,-0.090036,1.003084
0.123952,-0.088084,1.001620
0.123464,-0.083936,1.000400
0.124928,-0.081496,1.000400
0.131760,-0.080764,1.000400
0.133712,-0.084912,1.002108
0.134444,-0.090524,1.007476
0.130784,-0.093452,1.005524
0.129808,-0.090280,1.001620
0.130540,-0.084668,1.000644
0.132492,-0.082960,1.000888
0.134688,-0.091744,1.008208
0.136640,-0.089060,1.010404
0.134688,-0.086132,1.007232
0.129076,-0.080032,1.001132
0.127612,-0.076616,0.999912
0.129320,-0.073200,0.999912
0.128344,-0.072224,0.995276
0.132248,-0.068320,0.994056
0.134688,-0.067100,0.994056
0.132980,-0.062952,0.991860
0.134688,-0.064416,0.986736
0.135908,-0.063684,0.988688
0.136396,-0.070516,0.989664
0.137616,-0.072956,0.993324
0.143960,-0.075396,0.995032
0.143960,-0.074908,0.994300
0.141764,-0.072468,0.991616
0.138348,-0.077836,0.991372
0.131760,-0.085644,1.001376
0.120292,-0.083692,1.002108
0.117364,-0.080032,1.000400
0.120536,-0.078080,1.000156
0.124440,-0.073688,1.000644
0.126636,-0.072224,1.004060
0.128100,-0.075640,1.007964
0.123464,-0.076616,1.006012
0.116632,-0.076372,1.000644
0.115168,-0.081252,0.994056
0.116632,-0.079056,0.991372
0.120536,-0.072712,0.994300
0.120780,-0.072712,0.997472
0.120292,-0.076372,0.995764
0.118096,-0.081252,0.995032
0.115656,-0.077592,0.994300
0.116388,-0.074176,0.992836
0.118096,-0.075152,0.995764
0.118096,-0.075152,1.000400
0.115168,-0.088572,1.000644
0.110288,-0.085400,1.000400
0.109312,-0.076372,1.000644
0.112728,-0.069784,1.000156
0.111752,-0.075152,1.000644
0.113704,-0.077592,1.000400
0.108092,-0.081984,0.998692
0.106872,-0.087108,0.996496
0.103456,-0.086132,0.994300
0.100772,-0.085888,0.989664
0.102724,-0.079788,0.989420
0.102236,-0.077348,0.983076
0.104920,-0.081496,0.984296
0.104432,-0.082960,0.987224
0.104920,-0.083692,0.986980
0.101748,-0.085888,0.986736
0.105164,-0.084180,0.982588
0.106140,-0.084180,0.983564
0.106628,-0.095648,0.994544
0.106384,-0.096624,0.997472
0.105896,-0.089060,0.999668
0.104676,-0.085156,0.999180
0.104920,-0.087352,0.999424
0.105408,-0.086132,0.994544
0.101748,-0.079788,0.990152
0.100528,-0.083204,0.990396
0.097112,-0.091500,0.992592
0.100284,-0.094916,0.991128
0.100040,-0.091988,0.987712
0.103212,-0.089304,0.982832
0.107848,-0.089548,0.982832
0.112240,-0.091988,0.986248
0.111752,-0.092476,0.990640
0.114924,-0.091744,0.990640
0.113704,-0.090280,0.989908
0.114924,-0.091256,0.987956
0.114680,-0.074176,0.992348
0.119560,-0.074176,0.996008
0.119560,-0.086620,0.999424
0.118584,-0.096868,1.000644
0.111020,-0.094184,1.000400
0.109800,-0.087840,0.999912
0.108336,-0.086132,0.993324
0.113704,-0.086864,0.992836
0.119316,-0.086620,0.994300
0.124684,-0.086376,0.995276
0.126636,-0.088572,0.996496
0.124684,-0.089792,0.992836
0.121512,-0.091256,0.989664
0.118828,-0.086376,0.990396
0.120536,-0.086132,0.988444
0.124928,-0.085888,0.993812
0.129076,-0.085888,1.061400
0.133224,-0.093940,1.004060
0.132248,-0.097112,1.008208
0.133468,-0.091988,1.004548
0.133224,-0.086864,1.000400
0.135176,-0.092476,0.993568
0.136640,-0.094672,0.994788
0.137128,-0.097112,0.999180
0.133224,-0.093208,1.000888
0.133468,-0.090036,1.002352
0.132004,-0.083448,1.000644
0.134688,-0.081008,0.994056
0.135908,-0.081984,0.993568
0.134932,-0.081496,0.993568
0.134444,-0.082472,0.995276
0.130052,-0.084180,0.998692
0.121756,-0.083448,0.995764
0.115656,-0.079544,0.999912
0.113948,-0.076128,0.999180
0.112484,-0.074176,0.997472
0.109800,-0.076616,0.998936
0.105408,-0.081252,1.000888
0.097844,-0.081496,1.001620
0.092232,-0.077592,1.000400
0.086620,-0.073688,0.995032
0.083936,-0.076128,0.991616
0.083692,-0.081008,0.993324
0.083936,-0.083936,0.997716
0.083448,-0.084912,0.999424
0.083692,-0.081252,0.999424
0.083204,-0.092720,0.993324
0.083936,-0.096136,0.996008
0.083448,-0.094184,0.995520
0.083448,-0.089792,0.997472
0.083448,-0.091744,0.996008
0.082960,-0.094672,0.994300
0.082472,-0.096380,0.987224
0.082960,-0.094184,0.986736
0.084180,-0.096624,0.984540
0.087596,-0.098576,0.985272
0.089304,-0.093940,0.984784
0.090036,-0.094184,0.980392
0.090768,-0.096624,0.979172
0.090524,-0.095404,0.979416
0.092232,-0.111508,0.980392
0.095892,-0.111996,0.992348
0.098576,-0.102236,0.996740
0.099796,-0.100284,0.995764
0.102724,-0.105896,0.992592
0.107116,-0.111508,0.989420
0.105896,-0.114680,0.989176
0.107604,-0.112972,0.992348
0.106628,-0.112240,0.996008
0.105164,-0.108092,0.993080
0.103212,-0.097356,0.973560
0.106628,-0.099796,0.975512
0.111752,-0.104676,0.981612
0.117364,-0.109312,0.984784
0.116876,-0.110288,0.985760
0.113216,-0.111264,0.989908
0.108580,-0.110532,0.993080
0.105896,-0.111020,0.995520
0.101748,-0.107360,0.995520
0.103456,-0.105408,0.996008
0.103456,-0.105652,0.993080
0.101260,-0.105408,0.990396
0.103944,-0.103700,0.983808
0.105652,-0.095404,0.976732
0.107116,-0.091256,0.971608
0.108824,-0.096136,0.979416
0.101016,-0.102236,1.001376
0.095160,-0.095404,1.000888
0.092720,-0.096136,0.997960
0.091500,-0.094672,0.995032
0.095160,-0.094672,0.998204
0.100284,-0.096136,0.996252
0.103700,-0.097844,0.994544
0.106628,-0.097356,0.989420
0.111020,-0.097600,0.986736
0.108580,-0.098088,0.987712
0.104920,-0.097112,0.986736
0.102968,-0.090036,0.986492
0.102480,-0.086620,0.984540
0.106384,-0.086620,0.985272
0.111996,-0.085644,0.987956
0.119560,-0.083204,0.993568
0.120048,-0.083936,1.000400
0.116144,-0.086132,1.003328
0.111508,-0.093940,1.000644
0.107116,-0.089304,0.999912
0.109068,-0.090036,1.000156
0.109312,-0.085644,1.002108
0.112484,-0.080276,1.003572
0.112972,-0.081984,1.004792
0.112972,-0.084668,1.001620
0.113216,-0.090036,1.001376
0.113460,-0.093208,1.000644
0.110288,-0.096380,1.000888
0.110532,-0.099308,1.000400
0.105408,-0.090036,0.989908
0.100772,-0.082228,0.978928
0.103212,-0.075396,0.975024
0.107604,-0.075152,0.978196
0.108336,-0.082472,0.992348
0.104188,-0.090768,1.000644
0.101992,-0.091256,1.006256
0.096868,-0.089304,1.010648
0.089548,-0.083936,1.014796
0.087108,-0.086864,1.013088
0.089792,-0.090524,1.010648
0.090036,-0.089060,1.007964
0.089060,-0.090036,1.006744
0.091988,-0.090280,1.003816
0.091256,-0.089304,1.000888
0.090768,-0.085888,1.000156
0.092964,-0.084180,0.997228
0.093696,-0.085644,0.992836
0.096136,-0.085888,0.986492
0.099552,-0.088084,0.983564
0.101748,-0.092964,0.987468
0.103700,-0.094672,0.988932
0.104432,-0.098088,0.991128
0.104432,-0.098332,0.991128
0.102724,-0.096380,0.988932
0.106872,-0.094428,0.988932
0.108580,-0.093696,0.984052
0.112728,-0.097112,0.986004
0.114192,-0.100284,0.991128
0.109800,-0.099796,0.992592
0.107116,-0.096624,0.987956
0.101016,-0.090036,0.979416
0.101016,-0.089792,0.978684
0.103456,-0.089304,0.984296
0.105896,-0.091988,0.988932
0.110288,-0.095160,0.993324
0.111264,-0.097356,0.996008
0.110288,-0.093940,0.996008
0.106628,-0.091012,0.994300
0.106384,-0.090036,0.989908
0.107604,-0.092232,0.987956
0.109800,-0.094672,0.992104
0.112972,-0.096868,0.991616
0.114436,-0.094428,0.994544
0.112972,-0.091012,0.993568
0.111996,-0.090524,0.990152
0.113948,-0.091988,0.987468
0.114436,-0.094916,0.987956
0.113216,-0.095648,0.992348
0.112484,-0.091256,0.995520
0.109068,-0.087840,0.993812
0.110044,-0.087352,0.993324
0.111752,-0.084424,0.992348
0.112240,-0.088328,0.990396
0.113216,-0.088572,0.990396
0.112728,-0.087840,0.986980
0.116632,-0.088572,0.991128
0.117608,-0.094428,0.994544
0.115656,-0.093452,0.997960
0.114436,-0.083692,0.995520
0.111264,-0.075884,0.989664
0.107116,-0.080520,0.989664
0.104920,-0.078568,0.990884
0.103456,-0.075152,0.991128
0.105408,-0.070516,0.987224
0.108824,-0.073444,0.986980
0.111508,-0.075640,0.990396
0.111508,-0.076860,0.993568
0.110532,-0.076372,0.996252
0.106140,-0.077836,0.993812
0.103944,-0.078324,0.987956
0.101748,-0.075396,0.986492
0.100040,-0.071980,0.990396
0.100772,-0.068076,0.989908
0.103944,-0.066612,0.987224
0.104432,-0.072468,0.985760
0.105896,-0.073200,0.986248
0.103456,-0.077348,0.994300
0.102236,-0.080276,0.994544
0.101504,-0.084912,0.993568
0.098576,-0.083448,0.992348
0.095160,-0.081984,0.990152
0.095648,-0.082228,0.992836
0.096136,-0.085156,0.991128
0.095648,-0.088084,0.990640
0.094672,-0.087596,0.985760
0.094428,-0.089548,0.982588
0.092964,-0.096136,0.985272
0.095404,-0.099308,0.991128
0.094184,-0.101504,0.997716
0.093940,-0.104188,0.999912
0.089304,-0.102724,0.999912
0.081740,-0.098820,1.000888
0.078568,-0.097844,1.003816
0.082472,-0.098820,1.003572
0.082716,-0.104920,0.999180
0.080276,-0.108092,0.994300
0.075396,-0.102236,0.992104
0.074176,-0.098332,0.991860
0.079544,-0.096380,0.990396
0.087596,-0.101016,0.991372
0.091500,-0.106140,0.990884
0.092476,-0.110288,0.985760
0.093208,-0.111508,0.978928
0.090768,-0.111996,0.975756
0.091256,-0.111508,0.983320
0.093940,-0.112484,0.996740
0.095892,-0.113216,1.000888
0.101504,-0.109312,1.000644
0.103700,-0.110532,1.000400
0.101016,-0.108824,0.999912
0.098332,-0.110044,1.000644
0.091988,-0.107604,1.002840
0.091012,-0.101748,0.997960
0.096380,-0.094916,1.000400
0.097600,-0.101260,1.003084
0.101748,-0.101504,1.006988
0.101260,-0.095160,1.003328
0.100040,-0.095160,1.000400
0.096624,-0.092232,1.000400
0.096380,-0.091500,1.000644
0.097356,-0.095892,1.000400
0.099552,-0.095648,1.000400
0.102480,-0.097356,1.001864
0.105652,-0.096136,1.006744
0.105652,-0.098820,1.010892
0.101260,-0.100772,1.016016
0.099552,-0.100772,1.016504
0.096380,-0.098332,1.017480
0.096136,-0.095404,1.016992
0.098576,-0.094428,1.009916
0.099796,-0.091500,1.000156
0.098820,-0.091988,1.000644
0.100528,-0.091500,1.000888
0.096136,-0.096624,1.000156
0.095160,-0.102236,0.997472
0.090768,-0.101016,0.995276
0.088572,-0.098576,0.994788
0.089060,-0.097600,0.995032
0.088328,-0.101260,0.996984
0.084180,-0.100284,0.994300
0.084424,-0.099552,0.996252
0.083692,-0.098088,0.995276
0.082716,-0.097844,0.993080
0.081008,-0.101504,0.988200
0.079056,-0.105164,0.993324
0.076128,-0.105164,0.999668
0.073200,-0.101748,1.000644
0.071980,-0.097844,0.998936
0.074420,-0.095404,0.997228
0.071736,-0.097112,1.000400
0.071980,-0.099796,1.001620
0.071492,-0.099552,1.000644
0.071004,-0.098576,0.995764
0.071492,-0.096380,0.996252
0.073444,-0.096380,0.991860
0.075152,-0.099308,0.996008
0.075152,-0.099552,0.999424
0.077348,-0.098820,1.000644
0.076128,-0.098332,1.000644
0.076860,-0.095648,1.000400
0.079300,-0.096868,1.000400
0.080764,-0.098088,1.000400
0.080764,-0.101504,1.000400
0.081740,-0.096868,0.997472
0.086620,-0.093696,0.992104
0.088328,-0.095404,0.996252
0.091256,-0.097356,0.996984
0.090280,-0.098576,0.995276
0.090524,-0.095892,0.996740
0.090036,-0.095404,0.995520
0.091256,-0.094672,0.996740
0.091988,-0.095648,0.996740
0.089304,-0.097600,0.995032
0.089304,-0.095892,0.996252
0.091500,-0.093696,0.999668
0.091500,-0.094672,0.999424
0.090036,-0.095404,0.996740
0.088328,-0.096136,0.995520
0.087596,-0.096380,0.992348
0.087596,-0.097844,0.994056
0.087596,-0.099064,0.993812
0.085400,-0.098820,0.995032
0.084912,-0.101748,0.995520
0.085400,-0.100040,0.991860
0.082716,-0.095648,0.984296
0.081008,-0.095404,0.985516
0.080764,-0.097356,0.987956
0.081252,-0.099308,0.996252
0.081496,-0.098820,0.999424
0.079300,-0.096380,0.993080
0.073200,-0.090768,0.989664
0.068320,-0.089792,0.986736
0.067832,-0.091988,0.988688
0.067588,-0.092964,0.987712
0.067344,-0.092232,0.984784
0.064416,-0.089792,0.980392
0.062220,-0.091744,0.985028
0.059536,-0.087840,0.986492
0.057584,-0.084424,0.985760
0.056120,-0.081252,0.977952
0.054900,-0.082716,0.975268
0.057340,-0.083448,0.975756
0.057584,-0.082960,0.972828
0.057584,-0.082228,0.969900
0.060024,-0.079544,0.966240
0.060512,-0.080276,0.964776
0.062708,-0.082472,0.964532
0.064660,-0.081740,0.965508
0.066368,-0.080276,0.966484
0.071004,-0.080520,0.971120
0.072224,-0.081984,0.973316
0.072712,-0.082228,0.979172
0.073932,-0.081496,0.982588
0.076860,-0.080520,0.985760
0.080276,-0.082472,0.988444
0.083936,-0.082228,0.992348
0.087352,-0.079300,0.996496
0.089304,-0.072224,0.994056
0.094916,-0.073932,0.993324
0.096624,-0.076616,0.996008
0.100528,-0.079544,1.000400
0.102480,-0.079788,1.002840
0.106628,-0.075884,1.004060
0.108336,-0.075396,1.005036
0.112728,-0.079300,1.006988
0.114436,-0.078080,1.010892
0.115900,-0.080032,1.014308
0.116876,-0.083448,1.015772
0.118096,-0.086376,1.015528
0.117364,-0.086620,1.015284
0.118828,-0.087840,1.016748
0.120048,-0.090036,1.022848
0.118096,-0.090036,1.028216
0.117120,-0.090524,1.029192
0.117120,-0.086864,1.033584
0.118340,-0.088572,1.041636
0.114680,-0.079300,1.035536
0.109068,-0.084912,1.036512
0.102480,-0.086864,1.036512
0.097356,-0.084180,1.035780
0.095648,-0.076372,1.033096
0.099552,-0.065148,1.029924
0.103700,-0.057828,1.016992
0.109800,-0.056608,1.012356
0.113460,-0.055876,1.007476
0.114192,-0.053436,1.006988
0.112240,-0.053436,1.002108
0.111020,-0.052704,1.000400
0.113948,-0.046848,0.997472
0.122488,-0.041724,0.991128
0.131272,-0.037088,0.985272
0.140056,-0.034892,0.985272
0.148840,-0.037088,0.984052
0.151768,-0.039528,0.981856
0.150304,-0.038308,0.982100
0.155428,-0.032696,0.984540
0.162260,-0.028304,0.984784
0.167628,-0.029280,0.986248
0.173484,-0.032208,0.984540
0.174460,-0.032940,0.985760
0.175680,-0.034892,0.987956
0.173972,-0.038064,0.992836
0.172020,-0.039528,0.998936
0.171288,-0.041236,1.000644
0.168116,-0.043676,1.002840
0.166164,-0.043920,1.005280
0.162748,-0.043676,0.996008
0.163236,-0.040992,1.007964
0.164212,-0.038796,1.011380
0.163236,-0.040504,1.010404
0.161528,-0.044896,1.004548
0.155428,-0.058316,1.009428
0.151768,-0.061000,1.015772
0.149816,-0.060024,1.015040
0.146888,-0.064416,1.007964
0.143472,-0.065636,1.003572
0.143960,-0.066612,1.004060
0.144692,-0.068564,1.008208
0.146888,-0.067100,1.003328
0.147864,-0.067832,0.999912
0.147864,-0.069784,0.992836
0.148840,-0.072468,0.988200
0.146888,-0.075396,0.986004
0.147376,-0.076372,0.985272
0.143960,-0.074664,0.985516
0.139812,-0.071248,0.986248
0.138592,-0.065148,0.980880
0.135908,-0.062220,0.977220
0.141032,-0.059048,0.977708
0.142496,-0.058072,0.970388
0.139568,-0.055144,0.958188
0.135176,-0.049288,0.954284
0.137128,-0.043432,0.956236
0.137616,-0.040504,0.951600
0.140544,-0.041236,0.919392
0.142008,-0.038552,0.956968
0.138348,-0.034892,0.962092
0.136884,-0.034892,0.955992
0.139324,-0.031476,0.956236
0.140056,-0.030744,0.961604
0.140788,-0.029280,0.959896
0.139812,-0.028060,0.962336
0.140300,-0.027328,0.965508
0.137860,-0.025620,0.963068
0.138104,-0.025132,0.967216
0.144936,-0.020984,0.970876
0.146156,-0.020740,0.969412
0.143716,-0.023912,0.970144
0.147132,-0.025376,0.971608
0.150060,-0.027816,0.971120
0.153476,-0.028548,0.974292
0.153720,-0.027572,0.973804
0.154208,-0.028304,0.977220
0.154452,-0.026352,0.977464
0.156404,-0.025620,0.978928
0.158600,-0.028548,0.981856
0.162016,-0.028792,0.979416
0.160796,-0.027084,0.977220
0.164700,-0.026596,0.978928
0.165920,-0.024888,0.976244
0.167140,-0.023912,0.976244
0.170556,-0.024644,0.978928
0.171532,-0.024400,0.980148
0.175924,-0.026596,0.975512
0.175192,-0.027084,0.977220
0.176412,-0.029280,0.976976
0.178852,-0.028548,0.977708
0.179340,-0.029036,0.980392
0.181292,-0.030012,0.979660
0.183488,-0.029524,0.984052
0.185196,-0.030012,0.983320
0.187636,-0.030012,0.986248
0.188124,-0.029524,0.988444
0.184708,-0.028304,0.987956
0.182756,-0.026596,0.989664
0.183488,-0.023668,0.991860
0.183000,-0.021228,0.990396
0.182756,-0.019276,0.991372
0.186172,-0.018056,0.991860
0.186172,-0.018300,0.989664
0.185440,-0.020496,0.989664
0.180804,-0.021716,0.988688
0.184952,-0.022936,0.992104
0.184952,-0.024156,0.989420
0.185196,-0.027816,0.991372
0.183244,-0.028548,0.989664
0.184464,-0.029768,0.988200
0.183976,-0.031964,0.985760
0.183488,-0.033672,0.988932
0.183000,-0.036600,0.983320
0.185928,-0.037088,0.985516
0.184464,-0.038308,0.981856
0.185196,-0.038308,0.985028
0.177144,-0.047580,0.943060
0.210816,-0.041480,0.876936
0.168116,-0.037088,1.055056
0.166896,-0.031720,0.935252
0.183000,-0.029280,0.884500
0.175924,-0.029280,0.969900
0.150548,-0.031232,0.964288
0.162260,-0.035380,0.939644
0.164456,-0.041724,0.962336
0.162260,-0.042212,0.965264
0.151036,-0.041480,0.956480
0.156648,-0.044164,0.971608
0.156648,-0.043920,0.978196
0.157624,-0.043920,0.969656
0.159088,-0.043676,0.979904
0.161040,-0.044408,0.985760
0.169824,-0.045628,1.006744
0.166408,-0.044408,0.977708
0.173240,-0.046116,0.974780
0.169336,-0.046848,0.987956
0.173972,-0.046604,0.976000
0.176900,-0.050264,0.969168
0.179340,-0.054168,0.972096
0.180560,-0.053680,0.970876
0.181292,-0.055144,0.966240
0.189344,-0.053680,0.970388
0.199592,-0.048800,0.964532
0.196420,-0.055388,0.965508
0.184220,-0.069052,0.966240
0.171288,-0.081008,0.963068
0.166896,-0.078080,0.964044
0.183244,-0.067100,0.962336
0.180072,-0.068076,0.963068
0.178120,-0.064904,0.964532
0.176656,-0.063684,0.965020
0.174948,-0.063928,0.968436
0.175680,-0.061488,0.969656
0.175192,-0.060268,0.970388
0.174948,-0.060512,0.971364
0.174216,-0.059292,0.970632
0.175192,-0.060024,0.977708
0.174948,-0.060512,0.976976
0.175924,-0.060268,0.976000
0.176412,-0.060024,0.982832
0.175924,-0.058072,0.980880
0.176412,-0.056608,0.984052
0.175680,-0.056852,0.984540
0.173972,-0.053192,0.984052
0.174216,-0.053436,0.984540
0.173728,-0.050996,0.986492
0.175192,-0.048068,0.983320
0.172752,-0.047336,0.985760
0.173484,-0.044408,0.985272
0.171288,-0.045384,0.984296
0.172020,-0.044164,0.981124
0.173972,-0.043676,0.983564
0.173972,-0.040992,0.980636
0.175924,-0.040016,0.975756
0.176900,-0.041236,0.975756
0.180072,-0.039772,0.979172
0.179096,-0.038796,0.971364
0.180316,-0.037820,0.976488
0.179096,-0.036600,0.973804
0.178608,-0.038308,0.976244
0.177876,-0.036356,0.973316
0.180804,-0.035868,0.976000
0.180560,-0.029280,0.981124
0.181780,-0.030012,0.982344
0.179340,-0.027816,0.984784
0.179828,-0.026840,0.986736
0.181536,-0.024400,0.988932
0.180804,-0.026352,0.991128
0.182024,-0.023424,0.991372
0.180560,-0.021716,0.995764
0.183244,-0.023180,0.998936
0.183488,-0.023668,1.000644
0.184708,-0.023424,1.002596
0.186660,-0.021228,1.005280
0.187148,-0.020984,1.007964
0.186416,-0.019276,1.015772
0.188124,-0.020252,1.016260
0.187392,-0.017812,1.020164
0.187148,-0.017568,1.024312
0.185928,-0.014396,1.030900
0.181292,-0.012932,1.035780
0.180072,-0.013664,1.041392
0.176656,-0.015616,1.041636
0.176656,-0.015372,1.046516
0.172508,-0.015372,1.050664
0.170556,-0.016104,1.057252
0.167628,-0.018788,1.058960
0.165432,-0.019764,1.065304
0.161284,-0.023668,1.062376
0.160064,-0.024156,1.062376
0.156648,-0.024156,1.064816
0.153476,-0.022936,1.064328
0.148840,-0.022936,1.062620
0.147376,-0.023180,1.057252
0.145180,-0.024156,1.056032
0.140300,-0.024400,1.057740
0.140056,-0.024888,1.057984
0.135420,-0.023668,1.058228
0.133468,-0.020740,1.053592
0.133224,-0.019520,1.049932
0.127856,-0.018544,1.048224
0.128588,-0.015616,1.045784
0.126880,-0.013908,1.039440
0.125660,-0.012200,1.038952
0.125172,-0.010492,1.034072
0.130784,-0.012200,1.035048
0.129808,-0.009028,1.026996
0.133224,-0.008052,1.024556
0.134444,-0.007808,1.022604
0.138836,-0.007564,1.016748
0.138104,-0.007320,1.016748
0.141520,-0.008784,1.014552
0.143228,-0.007564,1.009916
0.145180,-0.010492,1.014552
0.143960,-0.011468,1.010892
0.142496,-0.009516,1.009672
0.143472,-0.010004,1.010160
0.142252,-0.012200,1.010648
0.142496,-0.013664,1.011136
0.141276,-0.013420,1.015284
0.140300,-0.016104,1.018456
0.139568,-0.016836,1.018944
0.135664,-0.017568,1.021384
0.133956,-0.018544,1.024800
0.129076,-0.020252,1.026508
0.124928,-0.019764,1.029924
0.118096,-0.021228,1.031876
0.111020,-0.020008,1.031144
0.100040,-0.020252,1.033096
0.095648,-0.021228,1.035536
0.087596,-0.022448,1.035536
0.076860,-0.024400,1.038708
0.038796,-0.035624,1.037244
0.021228,-0.041236,1.044076
0.028304,-0.030012,1.037244
0.053924,-0.015372,1.037244
0.077348,-0.002440,1.030168
0.085156,0.000244,1.024312
0.062952,-0.009028,1.014308
0.026596,-0.022448,1.011136
0.030988,-0.023668,1.008452
0.028548,-0.021960,1.003572
0.029524,-0.024400,0.998448
0.028792,-0.027572,0.996740
0.028548,-0.031720,0.985272
0.028548,-0.037576,0.977708
0.029280,-0.038552,0.967704
0.027572,-0.045140,0.961116
0.028548,-0.048800,0.955748
0.027328,-0.051972,0.950868
0.030012,-0.061732,0.944280
0.032452,-0.065392,0.942328
0.033184,-0.068808,0.940620
0.034648,-0.072956,0.930616
0.033672,-0.073444,0.939644
0.030744,-0.074176,0.939400
0.029280,-0.076372,0.945012
0.027328,-0.077104,0.949404
0.025864,-0.077592,0.952820
0.026108,-0.079788,0.960384
0.025376,-0.078812,0.965020
0.024400,-0.078568,0.973560
0.023424,-0.079544,0.976000
0.024644,-0.079300,0.982832
0.024888,-0.079788,0.986736
0.025132,-0.079056,0.991128
0.028304,-0.080764,1.000400
0.031232,-0.081252,1.000400
0.033428,-0.081252,1.003084
0.037088,-0.082228,1.009428
0.041968,-0.084180,1.018212
0.043920,-0.083204,1.020896
0.046116,-0.082472,1.021384
0.048556,-0.083448,1.023092
0.051240,-0.081252,1.026264
0.053924,-0.079788,1.027972
0.057584,-0.079788,1.025288
0.061488,-0.076128,1.024068
0.066124,-0.074908,1.020164
0.070028,-0.072956,1.017968
0.072224,-0.069540,1.008940
0.076616,-0.067344,1.001620
0.079300,-0.065636,0.996740
0.085888,-0.064172,0.987956
0.088816,-0.064172,0.980148
0.092720,-0.062952,0.973560
0.098820,-0.062220,0.963556
0.104432,-0.062708,0.954772
0.114192,-0.066368,0.936960
0.120536,-0.070272,0.927444
0.122976,-0.072956,0.920612
0.125660,-0.073688,0.912316
0.127856,-0.077348,0.911096
0.129076,-0.079788,0.906216
0.128588,-0.082472,0.906216
0.127856,-0.084668,0.905972
0.124440,-0.083936,0.908656
0.119316,-0.084912,0.909388
0.116144,-0.083692,0.913048
0.109312,-0.085644,0.920124
0.104432,-0.085156,0.924272
0.097356,-0.082228,0.930128
0.090768,-0.082472,0.939888
0.089792,-0.081740,0.946232
0.081740,-0.079544,0.952332
0.077592,-0.078812,0.959652
0.072712,-0.078324,0.965264
0.067100,-0.078080,0.980392
0.064660,-0.079788,0.986004
0.062220,-0.079788,0.991616
0.060512,-0.079544,0.997716
0.060268,-0.079300,0.996496
0.061244,-0.079300,1.000644
0.058560,-0.082472,1.000400
0.060756,-0.082472,1.000400
0.058072,-0.084424,1.001132
0.060268,-0.084668,1.001620
0.064416,-0.087108,1.001376
0.064904,-0.089060,1.000644
0.067344,-0.086864,0.998692
0.071736,-0.086864,0.996496
0.074420,-0.087840,0.997716
0.078080,-0.085156,0.992348
0.080520,-0.084912,0.989908
0.083204,-0.083204,0.986004
0.090280,-0.085888,0.980392
0.086620,-0.088084,0.977464
0.035136,-0.098088,0.978196
0.045384,-0.089548,0.980880
0.090280,-0.085644,0.978684
0.142252,-0.083204,0.976000
0.171776,-0.080276,0.973560
0.170556,-0.078324,0.971852
0.147376,-0.078324,0.973560
0.127124,-0.081496,0.976976
0.119560,-0.080764,0.982588
0.111752,-0.082472,0.985272
0.104188,-0.085156,0.989664
0.110288,-0.080520,0.994056
0.128832,-0.076372,0.990396
0.141276,-0.071736,0.995520
0.142984,-0.069540,0.999180
0.145668,-0.068320,0.999668
0.144936,-0.067100,1.001376
0.143960,-0.067832,1.003816
0.145180,-0.068808,1.001620
0.143960,-0.073688,1.009428
0.146888,-0.074908,1.009184
0.148108,-0.075396,1.009184
0.149328,-0.076860,1.009916
0.152500,-0.075152,1.009184
0.153720,-0.074908,1.006744
0.154208,-0.075640,1.005768
0.153232,-0.076860,1.003816
0.154940,-0.078080,1.006256
0.157136,-0.081496,1.004304
0.158356,-0.081984,1.004304
0.159576,-0.083448,1.001376
0.159088,-0.084668,1.001132
0.160064,-0.086132,1.000400
0.162748,-0.085888,1.000400
0.161772,-0.086376,1.000644
0.160308,-0.086620,1.000888
0.161772,-0.085400,1.001864
0.160064,-0.083692,1.001132
0.158844,-0.081252,1.000888
0.156892,-0.077836,1.001376
0.152988,-0.076128,1.000644
0.150792,-0.075884,1.001620
0.146888,-0.073200,1.003084
0.144692,-0.072956,1.002108
0.141764,-0.072468,1.007720
0.138592,-0.073444,1.007720
0.135664,-0.075396,1.004304
0.137372,-0.075396,1.010160
0.133956,-0.075396,1.007720
0.131516,-0.076128,1.008208
0.129320,-0.077592,1.007720
0.130540,-0.077104,1.002840
0.127124,-0.078568,1.005524
0.129320,-0.076128,1.003328
0.127856,-0.081252,1.002596
0.127124,-0.079300,1.000400
0.126148,-0.076616,0.999668
0.126880,-0.075884,0.999668
0.128832,-0.077104,0.995520
0.128100,-0.076860,0.993812
0.128100,-0.077836,0.990396
0.133956,-0.083692,0.950380
0.150304,-0.081252,0.913048
0.127856,-0.075640,1.018212
0.130540,-0.071004,0.940620
0.140544,-0.068564,0.891332
0.130784,-0.068808,0.976000
0.115900,-0.071004,0.954772
0.124928,-0.072712,0.924272
0.132492,-0.077348,0.959896
0.122244,-0.083204,0.954040
0.120780,-0.085888,0.955016
0.122000,-0.087108,0.964532
0.121268,-0.088328,0.955748
0.120292,-0.091012,0.964532
0.124928,-0.091500,0.972340
0.128832,-0.098576,0.954528
0.125172,-0.098576,0.998204
0.125172,-0.099552,0.970632
0.132004,-0.099308,0.965752
0.127368,-0.099796,0.982588
0.132004,-0.099064,0.972828
0.132736,-0.100040,0.969168
0.134200,-0.099796,0.972340
0.135176,-0.101016,0.973804
0.135420,-0.102724,0.967216
0.136152,-0.101748,0.975268
0.133468,-0.098820,0.969412
0.133712,-0.100284,0.974292
0.132980,-0.099308,0.975024
0.134932,-0.101016,0.978196
0.135664,-0.098088,0.979172
0.136152,-0.099552,0.977464
0.134932,-0.098088,0.979416
0.136152,-0.098332,0.979416
0.135420,-0.097356,0.980880
0.136640,-0.095160,0.983320
0.135420,-0.093696,0.984052
0.134932,-0.094184,0.983808
0.135908,-0.091500,0.982100
0.132736,-0.091500,0.982100
0.134200,-0.091744,0.983564
0.138348,-0.092232,0.985516
0.141764,-0.091500,0.986004
0.143716,-0.090036,0.985516
0.147132,-0.089060,0.984052
0.150792,-0.090036,0.984540
0.155428,-0.090280,0.983564
0.158356,-0.089304,0.983076
0.163968,-0.088084,0.983564
0.166896,-0.087108,0.986492
0.168116,-0.088328,0.988932
0.170800,-0.088816,0.989420
0.174948,-0.091012,0.994056
0.178120,-0.092476,0.994544
0.181536,-0.092964,0.995764
0.183000,-0.093208,0.999424
0.185928,-0.096624,1.000400
0.189832,-0.098088,1.000644
0.189588,-0.100040,1.006256
0.192272,-0.098332,1.009672
0.192028,-0.099064,1.015284
0.190564,-0.097356,1.026996
0.189100,-0.093940,1.030900
0.183488,-0.089792,1.039440
0.177876,-0.087596,1.047492
0.169580,-0.082472,1.058960
0.159820,-0.079300,1.072136
0.140544,-0.072712,1.084824
0.129564,-0.068564,1.090924
0.114192,-0.060512,1.095316
0.101504,-0.055388,1.106052
0.088328,-0.054412,1.116056
0.081740,-0.050020,1.118496
0.067832,-0.046360,1.118496
0.055876,-0.044164,1.125572
0.045872,-0.037088,1.127768
0.036844,-0.032940,1.126792
0.029524,-0.030256,1.127280
0.023180,-0.026352,1.123132
0.014152,-0.023424,1.112396
0.012932,-0.023668,1.103612
0.009760,-0.020252,1.094828
0.006832,-0.017568,1.081652
0.011712,-0.016836,1.060912
0.018300,-0.020008,1.046760
0.023180,-0.022448,1.032852
0.029280,-0.026596,1.027972
0.036356,-0.028792,1.001132
0.046848,-0.030988,1.000888
0.052704,-0.036112,0.995032
0.057828,-0.039528,0.991616
0.061732,-0.042212,0.976732
0.069784,-0.047092,0.976488
0.073444,-0.050508,0.972096
0.078080,-0.055144,0.970144
0.082960,-0.057584,0.969412
0.087352,-0.064172,0.974780
0.092476,-0.067588,0.976732
0.093208,-0.070272,0.981612
0.092720,-0.072956,0.985028
0.092232,-0.076128,0.995520
0.091744,-0.075152,1.061644
0.086620,-0.072224,1.012356
0.081740,-0.069052,1.022116
0.078324,-0.065636,1.027484
0.069784,-0.061244,1.034316
0.060024,-0.054168,1.043100
0.051240,-0.047824,1.044564
0.046116,-0.036844,1.049932
0.033672,-0.026840,1.052616
0.024888,-0.019520,1.056520
0.017568,-0.011224,1.059448
0.011224,-0.002928,1.057496
0.004880,0.000732,1.057984
0.002196,0.008052,1.056032
-0.003172,0.014640,1.053348
-0.007320,0.018056,1.044076
-0.006344,0.023180,1.041880
-0.011224,0.028060,1.036024
-0.008052,0.029280,1.029924
-0.008052,0.030744,1.024800
-0.005612,0.030500,1.016992
0.000244,0.034160,1.009916
0.003416,0.038308,1.004060
0.030256,0.063196,1.000644
0.057828,0.077836,0.995032
0.015372,0.029280,0.990396
-0.042700,0.009028,0.991372
-0.063928,0.015860,0.994300
-0.002440,0.047580,0.995276
0.000244,0.050752,0.989664
0.005124,0.050752,0.992836
0.002684,0.050508,0.996008
0.009028,0.051484,0.996496
0.010736,0.050996,1.000644
0.015372,0.052460,1.002352
0.018300,0.053192,1.004304
0.023912,0.054412,1.013820
0.029280,0.056120,1.015528
0.036112,0.054168,1.023092
0.041724,0.053192,1.032608
0.047336,0.052704,1.034316
0.054900,0.051728,1.039196
0.063196,0.051972,1.041392
0.067344,0.050264,1.042612
0.074664,0.049776,1.044320
0.079300,0.048556,1.046760
0.083936,0.044164,1.045784
0.089792,0.041236,1.045784
0.095648,0.038064,1.042124
0.097600,0.033428,1.040904
0.102724,0.030256,1.037244
0.107604,0.025620,1.030900
0.111020,0.024156,1.023824
0.118340,0.020984,1.017480
0.123708,0.018300,1.009184
0.119316,0.020496,1.000156
0.090768,0.039528,0.995032
0.091744,0.034648,0.986004
0.131028,-0.000488,0.971852
0.172996,-0.017324,0.955992
0.176412,-0.020984,0.951844
0.154696,-0.006100,0.946964
0.135664,0.004148,0.941596
0.128100,0.005124,0.933788
0.125904,0.003660,0.931348
0.127124,0.001952,0.925980
0.121024,0.000976,0.924760
0.115656,0.005368,0.928664
0.107604,0.008540,0.928664
0.098820,0.009272,0.924760
0.089792,0.011956,0.926956
0.085156,0.013908,0.932568
0.076616,0.015128,0.932324
0.070028,0.017324,0.931836
0.065636,0.016592,0.941108
0.060512,0.016592,0.944280
0.055388,0.017812,0.945988
0.051728,0.018300,0.947940
0.047824,0.019032,0.950868
0.045384,0.020252,0.952088
0.043432,0.019276,0.951112
0.041968,0.018544,0.952332
0.041236,0.016836,0.952088
0.040016,0.014640,0.953552
0.041724,0.012444,0.954528
0.039528,0.011224,0.953552
0.039772,0.009028,0.956236
0.041236,0.007564,0.955260
0.041968,0.006100,0.958920
0.043676,0.006832,0.957700
0.043920,0.008296,0.957212
0.046360,0.006588,0.956236
0.045872,0.009028,0.954284
0.049044,0.010004,0.957944
0.052948,0.010004,0.957700
0.056120,0.012688,0.955748
0.059536,0.011712,0.952088
0.065392,0.013908,0.949404
0.067832,0.013908,0.948184
0.073688,0.015616,0.948184
0.081984,0.013664,0.946476
0.086376,0.013420,0.944524
0.091988,0.014396,0.944036
0.100040,0.014152,0.942816
0.104432,0.015128,0.942816
0.110532,0.016104,0.945500
0.113948,0.019276,0.949404
0.118096,0.018544,0.947696
0.122000,0.021960,0.949160
0.124928,0.022692,0.951600
0.127368,0.024400,0.952820
0.126636,0.026596,0.955260
0.109312,0.026352,0.959652
0.097600,0.026352,0.961604
0.114192,0.027816,0.961604
0.151036,0.028792,0.963068
0.179340,0.031964,0.963068
0.194224,0.033916,0.962824
0.197884,0.038552,0.911096
0.194956,0.040748,0.910852
0.175192,0.041724,0.978684
0.180804,0.037332,0.917440
0.193492,0.040748,0.913780
0.196420,0.042700,0.971364
0.183244,0.039040,0.947940
0.179340,0.031964,0.958920
0.176900,0.025620,0.963312
0.168116,0.020252,0.975268
0.159820,0.017812,0.974292
0.161772,0.017568,0.990152
0.159332,0.018788,0.990640
0.156404,0.020740,0.996740
0.153964,0.019520,1.001864
0.153964,0.023180,1.003328
0.160552,0.029036,1.004792
0.159820,0.028548,0.997228
0.163480,0.032940,1.025532
0.160796,0.035624,1.002596
0.166896,0.035868,0.991128
0.169336,0.036356,0.997716
0.170556,0.034892,0.994544
0.174704,0.031476,0.976976
0.177144,0.030012,0.976488
0.176656,0.026108,0.971852
0.176412,0.026840,0.962580
0.173728,0.022448,0.961848
0.172020,0.021228,0.954772
0.170068,0.019032,0.948428
0.170312,0.017568,0.946476
0.166652,0.015860,0.941108
0.165188,0.015128,0.939400
0.163968,0.011956,0.935740
0.163480,0.008540,0.935252
0.162992,0.007076,0.935496
0.160552,0.006100,0.938424
0.160064,0.005124,0.939400
0.156160,0.003660,0.942572
0.156892,0.002928,0.945012
0.156892,0.004880,0.947940
0.153964,0.004392,0.952088
0.153964,0.006344,0.958676
0.152256,0.008296,0.963312
0.150060,0.008784,0.961360
0.150792,0.010492,0.964776
0.153720,0.011468,0.970388
0.152988,0.010980,0.973804
0.159332,0.011468,0.977464
0.160308,0.010980,0.979904
0.166408,0.008296,0.981856
0.174216,0.008052,0.986248
0.178120,0.006588,0.987224
0.183000,0.005612,0.988932
0.186660,0.004392,0.993324
0.190076,0.004880,0.992348
0.193492,0.006344,0.989908
0.198372,0.007076,0.991128
0.203984,0.006100,0.995520
0.209596,0.007076,0.989176
0.214720,0.005368,0.993812
0.222284,0.007564,0.993568
0.226920,0.007808,0.996252
0.233020,0.009028,0.995276
0.239120,0.009516,0.996496
0.245708,0.010492,0.995032
0.251320,0.008784,0.994300
0.257664,0.008052,0.993812
0.259616,0.007320,0.992836
0.266204,0.006832,0.995520
0.269864,0.008052,0.994788
0.274012,0.008296,0.994544
0.280844,0.007564,0.994544
0.283040,0.006100,0.998204
0.284992,0.006100,1.000156
0.284016,0.003904,1.000644
0.283284,0.003660,1.000400
0.280844,0.004148,1.001864
0.278648,0.003172,1.004304
0.273524,0.001708,1.008696
0.272060,0.001220,1.016748
0.265716,0.000244,1.021628
0.261812,-0.001464,1.029680
0.254492,-0.002440,1.044076
0.248392,-0.003416,1.051152
0.237656,-0.004392,1.065548
0.227652,-0.000244,1.068476
0.221064,-0.001464,1.080920
0.207644,-0.002440,1.089948
0.195444,-0.000488,1.101172
0.185196,0.001220,1.111908
0.169580,0.002928,1.122644
0.152744,0.004392,1.130940
0.133956,0.004880,1.136064
0.115412,0.007076,1.138016
0.101016,0.009272,1.143140
0.084668,0.015128,1.144360
0.072468,0.019032,1.148264
0.054412,0.029280,1.149972
0.049044,0.033916,1.142652
0.044896,0.037088,1.138748
0.042456,0.039040,1.129964
0.041236,0.042700,1.121912
0.043188,0.043676,1.113860
0.040016,0.046848,1.101172
0.042212,0.048800,1.094584
0.044164,0.049532,1.086288
0.048068,0.049288,1.079944
0.051484,0.047336,1.073844
0.055388,0.044408,1.070916
0.056608,0.044896,1.064084
0.060268,0.046360,1.055300
0.060024,0.046848,1.051152
0.060512,0.050020,1.039196
0.060756,0.051728,1.034804
0.061976,0.052460,1.029680
0.061488,0.057340,1.027972
0.061000,0.059536,1.030168
0.057340,0.062708,1.026752
0.054900,0.067100,1.027728
0.053680,0.072712,1.023336
0.047824,0.077348,1.019920
0.046116,0.080764,1.024800
0.040260,0.084180,1.021628
0.036844,0.085644,1.020896
0.033184,0.087352,1.017968
0.025132,0.086376,1.016260
0.019032,0.086132,1.015040
0.009760,0.087352,1.016016
0.002928,0.082716,1.013820
-0.004880,0.080520,1.017968
-0.011712,0.074908,1.011380
-0.026596,0.064172,1.012600
-0.033672,0.059048,1.009428
-0.039284,0.051484,1.011624
-0.045140,0.044896,1.011868
-0.048556,0.038308,1.011624
-0.052704,0.030012,1.016748
-0.056120,0.026108,1.014552
-0.058560,0.020252,1.011868
-0.060024,0.014152,1.014552
-0.060756,0.011224,1.012844
-0.060512,0.008296,1.013088
-0.059292,0.003172,1.019188
-0.057096,0.001464,1.015528
-0.054656,0.000976,1.014796
-0.049288,0.000976,1.016260
-0.045384,0.001708,1.017480
-0.037088,0.001952,1.019920
-0.026108,0.002196,1.025044
-0.019520,0.002196,1.027972
-0.016104,0.006832,1.026752
-0.009272,0.007076,1.028704
-0.007808,0.010736,1.031632
-0.000488,0.013176,1.034316
0.002928,0.014640,1.033340
0.006588,0.018056,1.035048
0.011224,0.020496,1.032852
0.013664,0.023668,1.036268
0.018788,0.024888,1.034072
0.021228,0.026352,1.033340
0.025620,0.026352,1.026020
0.028548,0.025864,1.018944
0.029524,0.025864,1.017724
0.034892,0.026840,1.016748
0.037820,0.024400,1.007964
0.042700,0.024156,1.001864
0.047580,0.020496,0.998692
0.051972,0.019276,0.989908
0.059048,0.017080,0.980148
0.066612,0.015372,0.977952
0.072468,0.012200,0.970632
0.079300,0.008296,0.963068
0.083448,0.005612,0.958432
0.087108,0.002440,0.949648
0.087840,0.002440,0.945988
0.089304,0.002440,0.944524
0.090524,0.000000,0.937448
0.084668,0.000000,0.929152
0.083692,-0.001220,0.928420
0.079544,0.000488,0.924760
0.078080,-0.001220,0.924516
0.071248,-0.002196,0.925004
0.068564,-0.004636,0.924760
0.061488,-0.007564,0.925492
0.057828,-0.011468,0.924028
0.054168,-0.012688,0.930860
0.050264,-0.015372,0.933300
0.045872,-0.017568,0.936960
0.041480,-0.019520,0.943060
0.040992,-0.024888,0.949160
0.035380,-0.026840,0.951112
0.029768,-0.029524,0.955504
0.027328,-0.032696,0.958920
0.022204,-0.032452,0.957212
0.018544,-0.036356,0.961848
0.015372,-0.038064,0.961848
0.010004,-0.044164,0.968680
0.006588,-0.044164,0.971364
0.005612,-0.046116,0.975024
0.004148,-0.045140,0.973316
0.002196,-0.046848,0.976976
0.004392,-0.044896,0.978196
0.004880,-0.047092,0.981368
0.008540,-0.046360,0.982588
0.010004,-0.048068,0.982832
0.013176,-0.046116,0.986004
0.013908,-0.045384,0.985516
0.015372,-0.047580,0.985272
0.021716,-0.047824,0.983808
0.022936,-0.049532,0.981124
0.026596,-0.046360,0.982100
0.032940,-0.046116,0.982344
0.038796,-0.042456,0.985272
0.046116,-0.041968,0.989664
0.048312,-0.040748,0.988200
0.058316,-0.037576,0.986248
0.063928,-0.035380,0.990396
0.067100,-0.032696,0.990396
0.072468,-0.032208,0.992836
0.079544,-0.030500,0.994788
0.086620,-0.030012,0.996984
0.089548,-0.028548,1.000156
0.094916,-0.026840,0.998692
0.100772,-0.025620,1.000644
0.104920,-0.023424,1.000400
0.111020,-0.023668,1.000400
0.117120,-0.020496,1.000400
0.118828,-0.020008,1.000156
0.125904,-0.018788,1.000156
0.131760,-0.017080,1.000400
0.136152,-0.017568,0.999424
0.141764,-0.020252,0.999668
0.145668,-0.019520,0.995520
0.154696,-0.023424,0.991860
0.159820,-0.027084,0.994056
0.162260,-0.030988,0.993812
0.165188,-0.034404,0.992592
0.170556,-0.038308,0.990884
0.173728,-0.040992,0.990884
0.175924,-0.043188,0.996008
0.178120,-0.043188,0.998692
0.179340,-0.045628,0.997228
0.178852,-0.045140,0.999912
0.179096,-0.048068,1.000644
0.178608,-0.046360,1.000888
0.176412,-0.044652,1.000888
0.173240,-0.045628,1.008208
0.171044,-0.045140,1.009672
0.166652,-0.045384,1.013576
0.160064,-0.044896,1.025532
0.156648,-0.044652,1.020652
0.156404,-0.044896,1.027484
0.153720,-0.045872,1.027484
0.153232,-0.047824,1.028948
0.152744,-0.046604,1.029680
0.149816,-0.046360,1.034560
0.147864,-0.049044,1.031388
0.143472,-0.050508,1.031388
0.141520,-0.050020,1.028948
0.138592,-0.052216,1.029924
0.132004,-0.057096,1.017724
0.137616,-0.062708,0.992104
0.136884,-0.057096,0.993812
0.119072,-0.057096,1.029192
0.123952,-0.054168,0.959408
0.120780,-0.054168,0.935740
0.100284,-0.060512,1.014064
0.092232,-0.063196,0.975024
0.085156,-0.067588,1.000400
0.080276,-0.066368,0.994788
0.074420,-0.066124,0.986736
0.072712,-0.070516,0.999424
0.070028,-0.071736,0.999424
0.064904,-0.072224,0.993812
0.069052,-0.074420,1.000400
0.071248,-0.073932,1.000644
0.074664,-0.073444,1.000400
0.080764,-0.074908,1.001132
0.086132,-0.072224,0.996984
0.086864,-0.063928,1.012600
0.100284,-0.071736,0.983320
0.110532,-0.072712,0.972096
0.111996,-0.076616,0.991128
0.112240,-0.078812,0.966972
0.122732,-0.079788,0.956724
0.126392,-0.082228,0.945988
0.134200,-0.083692,0.940864
0.135420,-0.086376,0.937204
0.137616,-0.088084,0.930616
0.139080,-0.088572,0.925980
0.139080,-0.087840,0.925248
0.140056,-0.085400,0.922808
0.138592,-0.085400,0.918416
0.133956,-0.084180,0.921588
0.133468,-0.083692,0.919148
0.132736,-0.087108,0.916708
0.131272,-0.088572,0.912804
0.132980,-0.088328,0.916220
0.135420,-0.087596,0.918660
0.136884,-0.087596,0.925736
0.137372,-0.092476,0.918904
0.140300,-0.093208,0.925980
0.142008,-0.097112,0.932812
0.142740,-0.100528,0.938912
0.144448,-0.102236,0.943304
0.145668,-0.104188,0.949404
0.145912,-0.106872,0.950868
0.150060,-0.111020,0.949648
0.154452,-0.114680,0.951844
0.156160,-0.114680,0.956968
0.160308,-0.118096,0.963556
0.164456,-0.119560,0.965752
0.167628,-0.121512,0.968436
0.171288,-0.124440,0.975756
0.176168,-0.126880,0.978196
0.160308,-0.133956,0.987224
0.177876,-0.124928,0.976244
0.190808,-0.123952,0.985272
0.186904,-0.125904,0.981856
0.190320,-0.124196,0.986004
0.197152,-0.122976,0.983076
0.203740,-0.123464,0.980392
0.206180,-0.120292,0.983076
0.211060,-0.120048,0.983808
0.214720,-0.116144,0.983320
0.216428,-0.113704,0.986736
0.219600,-0.110532,0.984052
0.224480,-0.109800,0.984540
0.226920,-0.107116,0.985272
0.230336,-0.103700,0.984540
0.231556,-0.103456,0.982344
0.237412,-0.103944,0.984784
0.242048,-0.101504,0.978928
0.247172,-0.101748,0.982100
0.251076,-0.103944,0.985272
0.252784,-0.103700,0.981368
0.254248,-0.106384,0.987224
0.257420,-0.107116,1.001620
0.252784,-0.110776,1.012600
0.243756,-0.110044,1.017968
0.233020,-0.109068,1.043588
0.219356,-0.104432,1.057252
0.198616,-0.096380,1.068476
0.177388,-0.087108,1.080188
0.152988,-0.075396,1.091168
0.127856,-0.062464,1.092876
0.105164,-0.050996,1.094828
0.088816,-0.042212,1.097268
0.075152,-0.035380,1.095804
0.063684,-0.032940,1.096292
0.058316,-0.032696,1.087752
0.056608,-0.032940,1.085068
0.055388,-0.037576,1.081896
0.055876,-0.040260,1.072136
0.057828,-0.051484,1.065792
0.057584,-0.055876,1.063352
0.056120,-0.061244,1.052860
0.056608,-0.067344,1.047004
0.053924,-0.070516,1.042124
0.049776,-0.071004,1.036268
0.046116,-0.069052,1.026020
0.045628,-0.066856,1.021384
0.045140,-0.066856,1.013088
0.045140,-0.067100,1.003572
0.046604,-0.068076,1.000644
0.052704,-0.069784,0.997716
0.058804,-0.070028,0.992836
0.064416,-0.070516,0.991616
0.069540,-0.070272,0.989908
0.073444,-0.069296,0.988932
0.078568,-0.062952,0.988200
0.078080,-0.058560,0.990884
0.079544,-0.055632,0.990884
0.075884,-0.049776,0.990396
0.071736,-0.045628,0.992104
0.067832,-0.040260,0.994300
0.062952,-0.032940,1.000888
0.057584,-0.028792,1.009184
0.054656,-0.024156,1.013576
0.049044,-0.018544,1.024556
0.045140,-0.014884,1.024800
0.038552,-0.007808,1.036756
0.031720,-0.002684,1.041636
0.023668,0.003172,1.041148
0.018056,0.011224,1.050420
0.008052,0.018788,1.057496
0.001220,0.026596,1.059448
-0.006100,0.033428,1.068476
-0.017324,0.039772,1.067988
-0.029280,0.054168,1.069208
-0.035380,0.057340,1.070428
-0.041968,0.062952,1.066768
-0.044652,0.067100,1.063352
-0.044896,0.070516,1.061888
-0.049532,0.073200,1.058960
-0.048800,0.074420,1.053348
-0.047580,0.077104,1.050176
-0.047092,0.078568,1.047248
-0.044408,0.074908,1.039928
-0.039772,0.075396,1.036024
-0.037088,0.075152,1.029924
-0.032696,0.074664,1.024068
-0.028792,0.073932,1.018700
-0.024888,0.068320,1.013088
-0.020252,0.066124,1.006500
-0.014640,0.065148,1.003328
-0.013420,0.064660,1.004060
-0.008052,0.065392,1.005524
-0.007076,0.067588,1.001132
-0.006588,0.066856,1.003084
-0.006100,0.068320,1.001864
-0.005856,0.069784,1.004548
-0.005124,0.068320,1.003328
-0.004148,0.067832,1.010892
-0.001952,0.066368,1.013332
-0.003904,0.069052,1.014064
-0.000244,0.066856,1.017236
0.001708,0.069540,1.026264
0.001708,0.066856,1.016992
0.007808,0.063684,1.021872
0.011956,0.062708,1.024068
0.016104,0.061732,1.018944
0.022204,0.058804,1.020652
0.022204,0.058804,1.020896
0.025864,0.056852,1.018212
0.029280,0.056608,1.017236
0.029768,0.055388,1.014308
0.034892,0.053192,1.011624
0.035624,0.052704,1.002840
0.037332,0.050752,1.000400
0.036112,0.051484,1.000400
0.036844,0.055388,0.993324
0.038552,0.056364,0.987468
0.037820,0.054412,0.985028
0.036844,0.054656,0.980148
0.041236,0.054412,0.972828
0.039772,0.054412,0.969900
0.041724,0.049532,0.968192
0.044896,0.051972,0.969656
0.044164,0.049776,0.966728
0.043188,0.051240,0.969656
0.043432,0.051240,0.963312
0.039528,0.051240,0.963312
0.038552,0.052704,0.963556
0.034404,0.056608,0.964776
0.029524,0.057096,0.960872
0.027328,0.059780,0.968192
0.024156,0.062708,0.965020
0.020740,0.064416,0.970388
0.020252,0.066612,0.971120
0.018300,0.065880,0.971608
0.014396,0.067100,0.974780
0.014396,0.066856,0.977464
0.012444,0.069540,0.975268
0.011468,0.069540,0.982100
0.010492,0.072224,0.986248
0.011956,0.071004,0.990640
0.012444,0.070028,0.989664
0.013664,0.070028,0.993080
0.014396,0.069052,0.987956
0.015128,0.066368,0.993812
0.018056,0.063928,0.994056
0.028304,0.056852,0.996984
0.026840,0.056852,0.985516
0.031476,0.053436,0.991128
0.031964,0.051728,0.988200
0.034404,0.047824,0.984784
0.038796,0.049044,0.989908
0.040748,0.044896,0.982344
0.046116,0.045872,0.978196
0.050508,0.041480,0.982588
0.054900,0.038552,0.972096
0.061000,0.036112,0.971852
0.068320,0.035624,0.972828
0.074176,0.037088,0.968924
0.079544,0.036356,0.963800
0.088328,0.033672,0.961116
0.095404,0.031964,0.964776
0.103700,0.031232,0.957212
0.109312,0.031964,0.956480
0.113948,0.031720,0.961604
0.119804,0.030988,0.962824
0.123220,0.032208,0.967704
0.127856,0.032696,0.967460
0.128588,0.034160,0.967704
0.131516,0.035624,0.978196
0.132248,0.039040,0.981856
0.135420,0.042456,0.981124
0.135664,0.043920,0.986736
0.138592,0.045872,0.990396
0.140788,0.044896,0.994300
0.142496,0.046848,0.998692
0.144448,0.048312,0.999424
0.147620,0.048068,1.006744
0.151036,0.047336,1.006988
0.151524,0.046604,1.009428
0.153232,0.044652,1.012112
0.157380,0.044164,1.012844
0.159332,0.042212,1.015040
0.162260,0.041724,1.013088
0.162992,0.040748,1.016260
0.166164,0.037088,1.016748
0.168360,0.035624,1.011868
0.172020,0.033428,1.013088
0.175192,0.030256,1.010404
0.176168,0.030988,1.006500
0.175924,0.029280,1.003084
0.176412,0.028060,1.001620
0.177388,0.028304,0.999912
0.175436,0.026840,0.998936
0.175680,0.024644,0.991128
0.174704,0.024400,0.989420
0.172996,0.023668,0.987956
0.174704,0.022448,0.985760
0.171776,0.021716,0.981368
0.173240,0.019764,0.979660
0.170556,0.016348,0.976732
0.165188,0.016104,0.973072
0.166408,0.013420,0.974292
0.161040,0.016104,0.969168
0.157868,0.016592,0.968680
0.154940,0.015372,0.965508
0.151768,0.014884,0.969168
0.150548,0.014884,0.965508
0.147376,0.014884,0.963312
0.144936,0.015128,0.963312
0.142008,0.016592,0.962336
0.140544,0.016348,0.963312
0.138836,0.014396,0.964044
0.141032,0.011956,0.964532
0.142008,0.009760,0.962824
0.142984,0.009516,0.964532
0.143716,0.005124,0.968924
0.142740,0.005368,0.964532
0.143960,0.005612,0.965996
0.142252,0.003416,0.967948
0.144448,0.002196,0.967948
0.145912,0.002196,0.966972
0.145180,-0.000732,0.968436
0.147376,-0.000732,0.971364
0.147376,0.000000,0.970144
0.147620,-0.000732,0.973316
0.151280,-0.002196,0.972584
0.152256,-0.002684,0.975268
0.155428,-0.003416,0.976976
0.158356,-0.004148,0.979172
0.160308,-0.004392,0.981856
0.163236,-0.003904,0.979904
0.170556,-0.007808,0.978440
0.174216,-0.007564,0.982344
0.176168,-0.010492,0.981856
0.179584,-0.008784,0.980392
0.183488,-0.008540,0.985028
0.184708,-0.011712,0.984784
0.188856,-0.009028,0.983320
0.192272,-0.009516,0.980880
0.199348,-0.010980,0.958676
0.201788,-0.000244,0.988200
0.213256,-0.001708,0.933544
0.214476,0.004636,0.941596
0.215452,0.007320,0.974536
0.211304,0.007564,0.914512
0.216184,0.008540,0.945500
0.214720,0.008052,0.962580
0.218380,0.005368,0.935740
0.226188,0.000244,0.959652
0.225456,0.000244,0.965264
0.224480,-0.001952,0.958432
0.226920,-0.002196,0.971608
0.232776,0.000488,0.964532
0.237656,0.001220,0.958432
0.240096,0.000732,0.986248
0.238876,0.000976,0.968924
0.244976,0.003904,0.971364
0.241072,0.001464,0.979172
0.244000,0.005368,0.977464
0.244976,0.005368,0.982588
0.245708,0.006588,0.978684
0.251320,0.006832,0.988200
0.246928,0.005124,0.980148
0.249612,0.006100,0.985760
0.249124,0.008540,0.986980
0.244488,0.006344,0.992104
0.244976,0.004636,0.998448
0.237412,0.006344,0.999912
0.231312,0.008540,1.000644
0.226188,0.009028,1.002840
0.217892,0.010736,1.006988
0.214476,0.007076,1.012112
0.206424,0.010736,1.012356
0.196908,0.009028,1.016016
0.191296,0.010004,1.016748
0.182756,0.010736,1.021384
0.175924,0.010248,1.019676
0.170800,0.013176,1.022848
0.163480,0.011956,1.027240
0.159332,0.011712,1.026996
0.151768,0.013420,1.022604
0.148596,0.011224,1.026752
0.139080,0.012932,1.026264
0.133712,0.013420,1.025044
0.128588,0.017080,1.030412
0.124440,0.018788,1.024312
0.120780,0.019520,1.023580
0.115656,0.022692,1.019188
0.108580,0.022936,1.023336
0.105164,0.025376,1.017236
0.099064,0.030744,1.015040
0.092720,0.032940,1.014552
0.092720,0.033184,1.015284
0.083692,0.033184,1.008452
0.081252,0.034648,1.004060
0.079300,0.035380,1.002108
0.078568,0.040992,1.000888
0.078812,0.042944,1.000888
0.078080,0.043432,1.001864
0.078324,0.042212,1.000644
0.081984,0.039040,0.999424
0.085644,0.038552,0.999424
0.090524,0.038796,1.001376
0.095404,0.041236,1.000400
0.101992,0.042456,0.999912
0.106628,0.041968,1.001132
0.110288,0.040260,1.001376
0.115900,0.040260,1.000644
0.119560,0.038308,1.005036
0.124440,0.039528,1.011380
0.126392,0.040748,1.016260
0.128588,0.042212,1.024556
0.131028,0.044408,1.035536
0.129320,0.043676,1.036512
0.130052,0.044164,1.041148
0.125416,0.045628,1.054812
0.122244,0.045872,1.061156
0.117364,0.046848,1.066280
0.117120,0.044652,1.068964
0.112484,0.046848,1.071892
0.110776,0.043676,1.069696
0.106872,0.042212,1.073112
0.101992,0.040260,1.074576
0.099552,0.037088,1.072136
0.096624,0.035624,1.070672
0.095404,0.033916,1.067500
0.093452,0.029768,1.060424
0.089060,0.025620,1.060180
0.085400,0.023424,1.049444
0.081252,0.018056,1.042124
0.077836,0.017324,1.033340
0.075152,0.010004,1.030656
0.072712,0.005368,1.019920
0.066612,0.002928,1.014308
0.063440,0.000000,1.001620
0.057828,-0.000976,1.002352
0.050996,-0.001952,0.992592
0.048068,-0.004636,0.986492
0.044164,-0.007076,0.979172
0.036356,-0.008784,0.972340
0.033184,-0.012200,0.966240
0.027328,-0.014640,0.957700
0.022692,-0.018300,0.957456
0.014152,-0.026352,0.947452
0.009516,-0.031964,0.949892
0.006832,-0.037088,0.948916
0.004636,-0.040748,0.946964
0.002196,-0.046360,0.952576
0.001220,-0.050020,0.955992
-0.001220,-0.054168,0.959408
-0.002196,-0.056852,0.968192
-0.000976,-0.062220,0.971364
-0.004636,-0.064172,0.977952
-0.004148,-0.066368,0.986492
-0.006832,-0.066612,0.991616
-0.009516,-0.069052,0.997228
-0.008296,-0.069784,1.003084
-0.011224,-0.071736,1.014064
-0.014396,-0.070272,1.022848
-0.014396,-0.067344,1.030900
-0.014884,-0.066612,1.036756
-0.015372,-0.065636,1.038220
-0.012932,-0.066124,1.042368
-0.012932,-0.064904,1.047492
-0.013420,-0.063196,1.048224
-0.011956,-0.061244,1.052860
-0.009516,-0.057096,1.052860
-0.007564,-0.055388,1.053104
-0.005124,-0.055144,1.054080
-0.000244,-0.052948,1.053348
0.003172,-0.052948,1.049932
0.006832,-0.051240,1.038952
0.018544,-0.050752,1.033340
0.025132,-0.049532,1.025532
0.029036,-0.048068,1.019432
0.037088,-0.048312,1.016260
0.042700,-0.047336,1.005524
0.046604,-0.044652,1.000400
0.054412,-0.043676,0.994300
0.058072,-0.042700,0.985516
0.062708,-0.040504,0.978684
0.065880,-0.041480,0.968436
0.070272,-0.038064,0.964044
0.073444,-0.040260,0.958432
0.076616,-0.041968,0.952332
0.081984,-0.041724,0.954528
0.078812,-0.042700,0.949648
0.081252,-0.042456,0.945500
0.082472,-0.042944,0.944036
0.081252,-0.045628,0.946232
0.078568,-0.046116,0.946232
0.076860,-0.049044,0.949160
0.074420,-0.049044,0.948916
0.070028,-0.049288,0.951356
0.068564,-0.048312,0.951844
0.063684,-0.049044,0.955504
0.062220,-0.051972,0.957456
0.059780,-0.053924,0.962824
0.058804,-0.057340,0.968436
0.058072,-0.060024,0.970632
0.056852,-0.061732,0.969900
0.056120,-0.064416,0.972340
0.055876,-0.065148,0.977220
0.055388,-0.069052,0.978684
0.055876,-0.071248,0.980880
0.054412,-0.073932,0.984296
0.056852,-0.075884,0.988932
0.054168,-0.077592,0.988932
0.053924,-0.077592,0.993324
0.050020,-0.077592,0.995520
0.049044,-0.074908,0.998204
0.047824,-0.076128,1.000644
0.048312,-0.074176,0.995764
0.051728,-0.074664,1.000156
0.051484,-0.073932,1.000644
0.055876,-0.074664,1.000400
0.055388,-0.071248,0.999180
0.057340,-0.070272,0.999668
0.060512,-0.069052,0.998204
0.061488,-0.068076,0.998936
0.065148,-0.065392,0.992104
0.068076,-0.066612,0.994056
0.070028,-0.065392,0.991860
0.075152,-0.064416,0.990396
0.076372,-0.061976,0.987956
0.078324,-0.062220,0.986004
0.081252,-0.061732,0.986248
0.084180,-0.060268,0.985760
0.088084,-0.058560,0.986980
0.090524,-0.054656,0.986492
0.090524,-0.055388,0.987712
0.095160,-0.052704,0.985272
0.094672,-0.052704,0.988444
0.096624,-0.051972,0.988932
0.096380,-0.050020,0.989908
0.097112,-0.045872,0.988444
0.101504,-0.046116,0.991128
0.104920,-0.049044,0.988688
0.108824,-0.047580,0.993812
0.113460,-0.049044,0.996740
0.115168,-0.048556,0.998204
0.120292,-0.049288,0.997472
0.120292,-0.049288,0.996496
0.124196,-0.049532,0.993568
0.126392,-0.049288,0.996252
0.130540,-0.050996,0.995764
0.137860,-0.053924,0.995276
0.140300,-0.056364,0.991616
0.144204,-0.057096,0.989908
0.146888,-0.058316,0.991860
0.151036,-0.061244,0.988688
0.152500,-0.060268,0.991372
0.152500,-0.061732,0.988200
0.159332,-0.072224,0.955504
0.174216,-0.063440,0.901824
0.153964,-0.065148,1.026996
0.159332,-0.061732,0.955504
0.162260,-0.062220,0.881084
0.154696,-0.064172,1.001132
0.139568,-0.066612,0.955748
0.144204,-0.067344,0.925980
0.144936,-0.072224,0.998204
0.134444,-0.073200,0.971852
0.126880,-0.073688,0.969900
0.124196,-0.073688,0.989664
0.114680,-0.068320,0.979660
0.111020,-0.067100,0.992104
0.106872,-0.063928,0.994300
0.103212,-0.065392,0.995032
0.102724,-0.066368,0.999180
0.101992,-0.066612,1.001376
0.102724,-0.066368,0.999912
0.105896,-0.067100,0.988444
0.099308,-0.066856,1.013820
0.105408,-0.068808,0.992104
0.103212,-0.069296,0.982588
0.108336,-0.070760,1.001132
0.106140,-0.073200,0.982100
0.109312,-0.075152,0.971120
0.110044,-0.076128,0.982100
0.109556,-0.077348,0.966484
0.112484,-0.079544,0.962336
0.114192,-0.078568,0.957212
0.118096,-0.079300,0.952576
0.119804,-0.079056,0.951600
0.122000,-0.078080,0.951356
0.121268,-0.076616,0.946964
0.123464,-0.076372,0.947940
0.122000,-0.076128,0.948672
0.123708,-0.073932,0.951356
0.125416,-0.075396,0.956236
0.129076,-0.074420,0.955992
0.130540,-0.073932,0.958432
0.133224,-0.073688,0.963068
0.134444,-0.072712,0.965020
0.138836,-0.071248,0.967460
0.142984,-0.071004,0.971608
0.146644,-0.072224,0.974048
0.151524,-0.070272,0.975756
0.154208,-0.071736,0.980880
0.158600,-0.071248,0.981612
0.169580,-0.068808,0.986492
0.172020,-0.070028,0.993324
0.176412,-0.070516,0.993324
0.181536,-0.071248,0.994056
0.185684,-0.071004,1.000400
0.190076,-0.073200,1.000644
0.190564,-0.074664,1.001376
0.195200,-0.076860,1.003328
0.198616,-0.077836,1.004792
0.200568,-0.078080,1.007964
0.205936,-0.079544,1.011136
0.206180,-0.079544,1.017236
0.205692,-0.080276,1.018456
0.210084,-0.079544,1.017236
0.209840,-0.076860,1.014064
0.207888,-0.075396,1.020896
0.206180,-0.073688,1.024068
0.207156,-0.072468,1.016504
0.206424,-0.071248,1.026996
0.207400,-0.071004,1.023824
0.206180,-0.068076,1.030656
0.205692,-0.067344,1.031876
0.203252,-0.066856,1.028948
0.200568,-0.062464,1.034316
0.200568,-0.060268,1.039684
0.199348,-0.053924,1.049444
0.194712,-0.048068,1.058960
0.189100,-0.047336,1.059936
0.184952,-0.042212,1.069940
0.175436,-0.038552,1.077260
0.167384,-0.032208,1.080676
0.158600,-0.027816,1.087752
0.149328,-0.019520,1.089704
0.143716,-0.014152,1.095316
0.132736,-0.007564,1.098000
0.123464,-0.004880,1.099952
0.117120,-0.004148,1.105320
0.100284,0.003904,1.098732
0.095404,0.005612,1.094584
0.091012,0.011956,1.091168
0.085888,0.011468,1.087752
0.082472,0.012444,1.081896
0.081740,0.010736,1.075064
0.076128,0.012444,1.071648
0.070028,0.012932,1.067988
0.069052,0.011224,1.063352
0.069784,0.008784,1.056764
0.068320,0.005856,1.049200
0.065880,0.001220,1.041636
0.067832,-0.000488,1.038220
0.066612,-0.001464,1.035048
0.065392,-0.001708,1.027728
0.066124,-0.001464,1.025044
0.063928,-0.003660,1.025044
0.065148,-0.003660,1.022360
0.063928,-0.003904,1.017480
0.064904,-0.005124,1.018456
0.066368,-0.006832,1.016748
0.069052,-0.006344,1.015040
0.073200,-0.008784,1.017968
0.075884,-0.005856,1.019188
0.082472,-0.006832,1.023580
0.083448,-0.007808,1.022848
0.085888,-0.005612,1.025288
0.089304,-0.005856,1.026020
0.089792,-0.006100,1.027484
0.090524,-0.004880,1.028216
0.091744,-0.002196,1.031388
0.090280,0.000000,1.037488
0.086376,-0.000244,1.040172
0.081252,0.006832,1.043100
0.080276,0.011468,1.049688
0.073444,0.018544,1.050176
0.065880,0.023912,1.053348
0.060024,0.030988,1.057740
0.051972,0.035136,1.054812
0.043676,0.043188,1.056032
0.036600,0.049532,1.055300
0.027572,0.060756,1.051640
0.022204,0.068808,1.050664
0.012200,0.072956,1.037732
0.005856,0.078812,1.034072
0.001464,0.083936,1.026264
0.001464,0.087352,1.013332
-0.001220,0.091256,1.002352
-0.002684,0.092720,0.999912
-0.003416,0.092232,0.985028
-0.001220,0.091500,0.969168
0.000244,0.091256,0.958432
0.000488,0.092232,0.954772
0.001220,0.089304,0.947696
0.004636,0.092232,0.944036
0.002928,0.090280,0.939888
0.002196,0.091500,0.936228
0.001708,0.090280,0.941596
0.003660,0.094916,0.940376
0.002440,0.095892,0.944036
0.000732,0.100772,0.950380
0.000244,0.100284,0.955504
0.000488,0.102480,0.957700
0.001220,0.105408,0.960140
0.002196,0.107116,0.965264
0.004392,0.108824,0.976976
0.010248,0.109312,0.984296
0.013908,0.110044,0.992104
0.016836,0.113216,0.996984
0.023180,0.111508,1.000156
0.029524,0.113704,1.000644
0.034648,0.113704,1.004548
0.043676,0.116876,1.008208
0.048800,0.116632,1.010892
0.053436,0.116144,1.016260
0.062708,0.116632,1.018700
0.066612,0.115412,1.018456
0.071492,0.113216,1.015040
0.078812,0.113460,1.017236
0.081740,0.110288,1.016992
0.090524,0.106140,1.010648
0.101504,0.102480,1.000888
0.107848,0.097600,0.998692
0.111752,0.094672,0.993324
0.117364,0.090280,0.980880
0.122732,0.087596,0.977464
0.128588,0.084912,0.972096
0.135420,0.077836,0.958432
0.138836,0.074176,0.950136
0.142740,0.075396,0.948184
0.143960,0.072712,0.938668
0.144692,0.074176,0.926468
0.144936,0.071004,0.931592
0.144204,0.071248,0.924760
0.142252,0.070516,0.907436
0.142008,0.074420,0.915976
0.141032,0.077348,0.927932
0.135176,0.080276,0.917196
0.130052,0.086132,0.911828
0.124928,0.088328,0.915976
0.119560,0.088572,0.922076
0.113460,0.091256,0.920856
0.107360,0.095160,0.925248
0.102236,0.096868,0.930372
0.096380,0.098576,0.935984
0.091012,0.101748,0.941596
0.086132,0.102968,0.949160
0.083204,0.105652,0.950380
0.078568,0.107116,0.951356
0.074420,0.106384,0.953796
0.072468,0.106872,0.964044
0.071248,0.105408,0.955992
0.071004,0.103700,0.957212
0.071248,0.101748,0.963312
0.069784,0.099552,0.958676
0.072468,0.100040,0.959408
0.072712,0.098576,0.961848
0.071980,0.097600,0.955260
0.076860,0.094916,0.953064
0.079300,0.094428,0.953552
0.080276,0.095160,0.948184
0.084424,0.093696,0.945256
0.088572,0.092720,0.944280
0.091744,0.094916,0.943060
0.097600,0.094672,0.939644
0.101016,0.093696,0.942816
0.104188,0.093940,0.941352
0.107848,0.094672,0.942084
0.111752,0.096136,0.940620
0.117852,0.095892,0.941108
0.121512,0.097112,0.942816
0.132980,0.093208,0.912560
0.149328,0.097600,0.846192
0.128344,0.112972,1.006744
0.130540,0.111020,0.921588
0.153476,0.115412,0.846436
0.153476,0.121512,0.940132
0.136640,0.120292,0.949160
0.154940,0.113704,0.924028
0.165920,0.110776,0.932812
0.163724,0.106628,0.953796
0.164944,0.106384,0.945012
0.172996,0.109800,0.949160
0.179340,0.107604,0.960140
0.183488,0.108092,0.964532
0.183488,0.103456,0.971364
0.186660,0.101992,0.982588
0.190808,0.102480,0.986492
0.194224,0.096624,0.974048
0.195688,0.101504,1.006744
0.194956,0.101504,0.995520
0.199592,0.101016,1.000400
0.200080,0.099308,0.998448
0.202764,0.100528,0.992592
0.204716,0.101748,0.999912
0.203984,0.101016,0.994544
0.203740,0.101748,0.997228
0.202764,0.103944,0.997228
0.199836,0.105164,0.991128
0.199104,0.103700,0.995520
0.192760,0.104676,0.990152
0.161040,0.099064,0.987224
0.112240,0.087840,0.992104
0.121512,0.086376,0.987712
0.184220,0.098576,0.985760
0.266936,0.112484,0.984784
0.296948,0.129320,0.982100
0.246928,0.111508,0.978928
0.185196,0.104188,0.971852
0.187148,0.105408,0.972096
0.190320,0.104188,0.979904
0.188368,0.100772,0.977952
0.190564,0.101260,0.976000
0.189832,0.099308,0.976000
0.188612,0.098576,0.975512
0.191052,0.100772,0.977220
0.188368,0.101260,0.976976
0.189344,0.099064,0.975512
0.189100,0.097112,0.979660
0.191296,0.098820,0.976000
0.192028,0.093208,0.979904
0.193492,0.093452,0.980880
0.196176,0.091744,0.981368
0.196420,0.088816,0.982832
0.196664,0.085644,0.986248
0.196664,0.083204,0.987956
0.198128,0.083448,0.989176
0.195932,0.081496,0.991860
0.197640,0.079300,0.994300
0.197884,0.079056,0.993812
0.198616,0.077348,0.994788
0.200812,0.076128,0.995520
0.198372,0.075152,0.995764
0.200080,0.073932,0.998936
0.198860,0.071736,0.998692
0.200812,0.070760,0.998936
0.201544,0.067344,0.999668
0.203984,0.067832,0.999180
0.204960,0.066124,1.000400
0.207156,0.065392,1.000156
0.207156,0.064904,0.998936
0.209596,0.063684,0.998204
0.211548,0.062464,0.999912
0.212768,0.059048,0.994300
0.215452,0.056364,0.996008
0.216428,0.053924,1.000400
0.217404,0.054656,0.998936
0.218868,0.051728,1.002352
0.216428,0.051240,1.010160
0.215696,0.049776,1.017968
0.210328,0.052704,1.022604
0.203496,0.053192,1.031876
0.194224,0.054412,1.039196
0.181780,0.055632,1.044320
0.167384,0.061488,1.056764
0.152988,0.061732,1.067256
0.136152,0.068076,1.068720
0.105408,0.071248,1.079456
0.093208,0.073444,1.093852
0.081496,0.073688,1.091168
0.068808,0.076860,1.095560
0.060512,0.079544,1.109468
0.055144,0.081252,1.105564
0.047336,0.081252,1.104588
0.040504,0.084180,1.103856
0.038796,0.083692,1.098244
0.031720,0.086620,1.094096
0.028060,0.085644,1.090680
0.028304,0.085644,1.076528
0.027816,0.085400,1.074088
0.030012,0.082472,1.067500
0.035624,0.082228,1.054568
0.040016,0.082228,1.045784
0.045872,0.079544,1.037000
0.052948,0.074420,1.034316
0.057340,0.068320,1.026508
0.065636,0.064904,1.020408
0.070516,0.061976,1.019920
0.075396,0.061488,1.016260
0.079788,0.063196,1.013576
0.080520,0.064172,1.016992
0.080764,0.065392,1.016504
0.082472,0.064660,1.016748
0.079056,0.066612,1.025288
0.074420,0.067344,1.027484
0.070516,0.067100,1.029436
0.066856,0.069296,1.038952
0.056364,0.071736,1.045784
0.049532,0.072712,1.044076
0.028792,0.076616,1.060180
0.017568,0.077592,1.064572
0.010980,0.073444,1.064816
0.004392,0.071004,1.070184
-0.000488,0.067344,1.066768
-0.007808,0.061976,1.064572
-0.012688,0.055876,1.062620
-0.016836,0.048800,1.056276
-0.015128,0.040260,1.042856
-0.018300,0.030500,1.037976
-0.014640,0.020496,1.026996
-0.014152,0.010248,1.016016
-0.014396,0.000488,1.005768
-0.012688,-0.009028,0.999180
-0.007808,-0.017080,0.990396
-0.010004,-0.027084,0.986248
-0.006832,-0.035136,0.975512
-0.005368,-0.043188,0.961604
-0.006344,-0.054900,0.961604
-0.007808,-0.059780,0.945744
-0.010004,-0.063684,0.946964
-0.009028,-0.066124,0.948184
-0.014884,-0.066612,0.947208
-0.015128,-0.068808,0.954772
-0.015860,-0.068564,0.957700
-0.019520,-0.066124,0.962824
-0.022936,-0.063684,0.976976
-0.024888,-0.058804,0.981856
-0.030744,-0.054656,0.986736
-0.040260,-0.043676,1.000888
-0.044896,-0.038308,1.002108
-0.045628,-0.035624,1.016016
-0.052704,-0.031232,1.016016
-0.054168,-0.031720,1.018944
-0.056120,-0.027816,1.024312
-0.058804,-0.027572,1.023336
-0.059536,-0.026596,1.025532
-0.055876,-0.027084,1.027484
-0.052216,-0.029768,1.023336
-0.047336,-0.032452,1.020164
-0.040260,-0.035868,1.012844
-0.034160,-0.039040,1.000644
-0.015616,-0.047092,0.992348
-0.005856,-0.049776,0.981368
0.001952,-0.050508,0.976488
0.009028,-0.054412,0.962824
0.021228,-0.056120,0.954040
0.032208,-0.056364,0.946964
0.039772,-0.058316,0.940132
0.047824,-0.061488,0.927932
0.055144,-0.058804,0.926956
0.061488,-0.057828,0.920612
0.067832,-0.060268,0.914756
0.071736,-0.058072,0.912316
0.075640,-0.059048,0.914268
0.079788,-0.057340,0.916952
0.080520,-0.056120,0.916220
0.082472,-0.053436,0.921344
0.083936,-0.053924,0.929640
0.083692,-0.053924,0.935984
0.081252,-0.051972,0.938668
0.079056,-0.049776,0.946476
0.077104,-0.049532,0.952820
0.074420,-0.048312,0.955748
0.072468,-0.050264,0.961848
0.070516,-0.050752,0.970632
0.069784,-0.053192,0.975268
0.068808,-0.055144,0.976488
0.066856,-0.056364,0.980880
0.065636,-0.058804,0.983320
0.063440,-0.060268,0.989908
0.060024,-0.060756,0.990640
0.058072,-0.065880,0.993324
0.058072,-0.067832,0.995764
0.053924,-0.067344,0.994544
0.051728,-0.071248,0.995764
0.050996,-0.070516,0.996496
0.051972,-0.072224,0.995032
0.048800,-0.071004,0.989664
0.049044,-0.072224,0.990152
0.049288,-0.068808,0.992592
0.048556,-0.068076,0.991128
0.050020,-0.068564,0.988932
0.051972,-0.067344,0.987224
0.051972,-0.068076,0.985028
0.052948,-0.064660,0.986248
0.053192,-0.064416,0.985028
0.052216,-0.060268,0.983076
0.053192,-0.059048,0.982100
0.051484,-0.056608,0.978928
0.052460,-0.057584,0.978440
0.050752,-0.054168,0.978196
0.053924,-0.050752,0.977708
0.053680,-0.045384,0.978196
0.055632,-0.044652,0.977708
0.055144,-0.039528,0.977952
0.055388,-0.040016,0.979172
0.057828,-0.036844,0.981856
0.057584,-0.036356,0.984052
0.060268,-0.033184,0.986248
0.061000,-0.034160,0.989420
0.063440,-0.032208,0.994788
0.065636,-0.034160,0.995764
0.068076,-0.031232,1.000156
0.068564,-0.031964,1.000156
0.071980,-0.030012,1.000400
0.072224,-0.030744,1.001376
0.074664,-0.030256,1.001376
0.077104,-0.028304,1.001620
0.079300,-0.029280,1.003328
0.081252,-0.024156,1.005036
0.084668,-0.022448,1.005768
0.087840,-0.022204,1.003816
0.091012,-0.020496,1.004304
0.093696,-0.019520,1.004548
0.095648,-0.019520,1.002108
0.101504,-0.020984,1.005280
0.107360,-0.021716,1.000644
0.112484,-0.023912,1.000400
0.115168,-0.023180,1.000400
0.120536,-0.023180,0.995764
0.125904,-0.025376,0.993812
0.130540,-0.025620,0.989908
0.133712,-0.027816,0.987468
0.137616,-0.029524,0.987224
0.142740,-0.028548,0.990152
0.145912,-0.028060,0.986736
0.146400,-0.027816,0.986004
0.150304,-0.028792,0.983320
0.151768,-0.025620,0.984784
0.149572,-0.026108,0.988932
0.148840,-0.027572,0.990396
0.149816,-0.027816,0.989908
0.148596,-0.025620,0.990152
0.149084,-0.026596,0.998204
0.146644,-0.024888,0.994056
0.146644,-0.026352,0.999424
0.144204,-0.023180,0.996984
0.142740,-0.022204,1.000400
0.140056,-0.021960,1.000156
0.135420,-0.020008,1.000644
0.133712,-0.017812,1.001620
0.133468,-0.015372,1.002108
0.128588,-0.017812,1.001864
0.129076,-0.014884,1.004060
0.128832,-0.016836,1.005768
0.134444,-0.016592,0.965020
0.128832,-0.018544,0.967216
0.121756,-0.007808,1.019188
0.139080,-0.017080,0.941108
0.146888,-0.010248,0.915976
0.119804,-0.011956,1.011868
0.124440,-0.015128,0.952576
0.130784,-0.015128,0.962092
0.135908,-0.023180,0.987956
0.128344,-0.027572,0.982832
0.127856,-0.027816,0.963800
0.136884,-0.030744,0.989176
0.139080,-0.028792,0.980392
0.141276,-0.032696,0.981124
0.141032,-0.033184,1.060424
0.149328,-0.038552,1.000400
0.153232,-0.041724,1.004792
0.159332,-0.043432,1.001376
0.158844,-0.040260,1.015284
0.167872,-0.042456,0.992348
0.171288,-0.042212,0.995276
0.173972,-0.043676,1.012600
0.172020,-0.044652,0.992592
0.182024,-0.045872,0.991860
0.182756,-0.049776,0.999668
0.183732,-0.047336,0.978196
0.187392,-0.049532,0.985028
0.189832,-0.050752,0.983320
0.192760,-0.050020,0.978440
0.196176,-0.049288,0.977220
0.197396,-0.050020,0.978928
0.196664,-0.050752,0.985028
0.193736,-0.050508,0.988444
0.188368,-0.046116,0.995276
0.185196,-0.043676,0.997716
0.179096,-0.040504,1.002108
0.174216,-0.036112,1.012112
0.165920,-0.033184,1.022360
0.161040,-0.028304,1.031632
0.153476,-0.023912,1.035780
0.147620,-0.018300,1.046272
0.135664,-0.013420,1.049200
0.130296,-0.008296,1.056520
0.119804,-0.003172,1.066280
0.110776,0.000976,1.068476
0.104432,0.003416,1.075064
0.098576,0.012444,1.079944
0.092964,0.014396,1.081408
0.090036,0.018544,1.081652
0.080276,0.022692,1.084336
0.076128,0.024888,1.081896
0.069296,0.026596,1.081896
0.069296,0.025864,1.073600
0.065148,0.027816,1.077504
0.063196,0.026352,1.078968
0.058560,0.028304,1.066036
0.055632,0.031964,1.076040
0.051484,0.032696,1.080432
0.048068,0.035380,1.079212
0.042456,0.037088,1.083116
0.035136,0.040016,1.085556
0.027084,0.045872,1.078968
0.019276,0.049776,1.089704
0.011956,0.057828,1.085556
0.004148,0.063684,1.087264
-0.000488,0.069540,1.096536
-0.007564,0.072224,1.095804
-0.014396,0.075884,1.087752
-0.021228,0.078812,1.086776
-0.024156,0.084180,1.089948
-0.026840,0.086864,1.088728
-0.026596,0.088084,1.088728
-0.024888,0.088328,1.093608
-0.022448,0.088328,1.087264
-0.011956,0.087352,1.079700
-0.008784,0.086376,1.071160
-0.005124,0.086132,1.062132
-0.005124,0.089060,1.056276
0.000000,0.088816,1.050664
0.001464,0.090768,1.041148
0.000732,0.091500,1.034560
0.001464,0.088572,1.029436
0.002196,0.092232,1.020408
0.003660,0.096380,1.013576
0.002440,0.100772,1.008696
0.001464,0.105408,1.001864
0.001220,0.105408,0.998936
0.000732,0.107848,0.993080
-0.003904,0.113216,0.981124
-0.004636,0.115168,0.979416
-0.007076,0.119072,0.972096
-0.008540,0.120292,0.965752
-0.008296,0.123464,0.960628
-0.007076,0.125416,0.956724
-0.010492,0.127368,0.957700
-0.009272,0.128100,0.952820
-0.012688,0.133956,0.954772
-0.013664,0.138348,0.953064
-0.014396,0.139812,0.955016
-0.011712,0.142740,0.956480
-0.013176,0.142740,0.955504
-0.011468,0.144936,0.954284
-0.009028,0.145424,0.957944
-0.007564,0.144448,0.959896
-0.004392,0.142496,0.967460
-0.000488,0.142740,0.970876
0.002684,0.141032,0.975024
0.009272,0.140056,0.984296
0.014396,0.141764,0.988688
0.019520,0.140544,0.990396
0.024644,0.142008,0.995520
0.028060,0.144448,0.998448
0.033184,0.143960,1.001376
0.038064,0.144692,1.003328
0.039284,0.146644,1.005280
0.045384,0.147132,1.009672
0.045628,0.148596,1.013576
0.052216,0.152744,1.012600
0.058560,0.155916,1.017236
0.063196,0.154208,1.012112
0.069052,0.155916,1.009428
0.073932,0.156648,1.009428
0.079300,0.157624,1.003084
0.086132,0.155184,1.000888
0.089792,0.154940,0.999912
0.096624,0.151768,0.993080
0.102480,0.148352,0.987224
0.104920,0.147864,0.977220
0.109556,0.146400,0.972584
0.110776,0.142008,0.965996
0.114436,0.140544,0.957456
0.116876,0.138592,0.955260
0.120048,0.133712,0.947208
0.120292,0.131272,0.945500
0.121024,0.131272,0.937936
0.118828,0.129076,0.931104
0.119316,0.127612,0.929396
0.114680,0.125660,0.926468
0.111508,0.125172,0.923296
0.109800,0.124684,0.928176
0.107604,0.124196,0.926224
0.104676,0.123708,0.931348
0.100528,0.124440,0.932568
0.093940,0.123952,0.935496
0.089548,0.124684,0.935984
0.083448,0.128588,0.934520
0.080520,0.126880,0.939888
0.075884,0.126636,0.944524
0.070760,0.126148,0.954772
0.070516,0.124440,0.957212
0.069784,0.125172,0.962580
0.070028,0.123708,0.964776
0.066856,0.125416,0.965264
0.067832,0.126148,0.965020
0.066856,0.122732,0.968436
0.065148,0.125416,0.967216
0.065392,0.123952,0.968192
0.066612,0.122244,0.969412
0.067588,0.120048,0.972340
0.070272,0.118340,0.973316
0.072712,0.116388,0.972096
0.072712,0.116632,0.971852
0.073200,0.116388,0.973072
0.075884,0.116388,0.967460
0.076372,0.119072,0.968192
0.078324,0.119072,0.965996
0.078812,0.122976,0.968192
0.079300,0.123220,0.968192
0.081252,0.124684,0.963312
0.082960,0.125904,0.961116
0.084668,0.127368,0.961604
0.088572,0.127368,0.955992
0.091744,0.132004,0.956480
0.093452,0.131028,0.954040
0.097112,0.131028,0.953552
0.103456,0.132004,0.954040
0.105652,0.131760,0.953308
0.112972,0.133224,0.951600
0.116144,0.132736,0.950624
0.121024,0.129076,0.954772
0.123464,0.129320,0.955016
0.124684,0.127612,0.956236
0.129808,0.128588,0.958432
0.130784,0.128588,0.959408
0.131760,0.128100,0.957456
0.133712,0.126636,0.963068
0.134932,0.125904,0.964288
0.138348,0.125904,0.965264
0.141764,0.126392,0.965752
0.143228,0.125416,0.967704
0.145424,0.128100,0.971120
0.145912,0.127368,0.967948
0.148108,0.127124,0.973560
0.149328,0.122976,0.974292
0.151280,0.121756,0.970144
0.154208,0.121268,0.974536
0.156892,0.119804,0.974780
0.158356,0.119072,0.976000
0.161284,0.116144,0.976976
0.165432,0.113460,0.975512
0.165188,0.112484,0.975756
0.168116,0.111020,0.977220
0.168116,0.109312,0.973804
0.170068,0.109556,0.974536
0.171044,0.108092,0.972340
0.174948,0.108580,0.970144
0.174704,0.107848,0.970632
0.176412,0.108824,0.966728
0.177388,0.108092,0.968680
0.175680,0.109312,0.968192
0.177876,0.109556,0.968436
0.178120,0.112972,0.968924
0.176656,0.112972,0.970144
0.174704,0.114436,0.971364
0.172264,0.116632,0.971852
0.169824,0.118828,0.976000
0.164456,0.120292,0.976732
0.161040,0.119560,0.977220
0.158112,0.120048,0.979416
0.155428,0.120536,0.980148
0.152012,0.119560,0.979904
0.149084,0.119072,0.985272
0.150060,0.117852,0.986004
0.147132,0.117364,0.986248
0.146156,0.115656,0.988200
0.146400,0.115168,0.988200
0.144936,0.113704,0.989908
0.147864,0.112484,0.990884
0.146400,0.110288,0.988688
0.149572,0.111264,0.991372
0.151524,0.109068,0.989908
0.152012,0.108092,0.988932
0.153720,0.107848,0.989664
0.156160,0.106872,0.987956
0.158844,0.105896,0.985760
0.158844,0.105652,0.986980
0.161772,0.102968,0.984784
0.163724,0.103212,0.985760
0.162748,0.101260,0.984052
0.165920,0.101260,0.983320
0.170800,0.098332,0.983808
0.173728,0.095648,0.983808
0.181292,0.090768,0.983076
0.185196,0.088816,0.980636
0.189100,0.087596,0.982832
0.193980,0.084912,0.980148
0.195932,0.081984,0.977464
0.200324,0.084424,0.977708
0.203496,0.082960,0.973804
0.206912,0.083692,0.971120
0.214964,0.087840,0.945012
0.216184,0.075640,0.879132
0.219600,0.091500,1.012112
0.218136,0.087596,0.923296
0.226432,0.089060,0.865956
0.221552,0.096136,0.978196
0.218136,0.087596,0.956480
0.222040,0.082472,0.912804
0.233996,0.078812,0.969412
0.222772,0.078812,0.955504
0.221552,0.077348,0.946476
0.225456,0.078568,0.967460
0.226432,0.074908,0.972584
0.222040,0.074420,0.971852
0.220088,0.074420,0.991616
0.220576,0.071492,0.998936
0.218868,0.072224,1.000400
0.219600,0.072712,1.001132
0.216184,0.074420,1.013820
0.209352,0.075396,1.018212
0.197152,0.079300,1.018456
0.189588,0.078324,1.027972
0.184464,0.080520,1.031388
0.166652,0.081740,1.037976
0.161040,0.081984,1.043832
0.151280,0.085888,1.042856
0.144936,0.084912,1.049200
0.137128,0.085156,1.048468
0.130540,0.087840,1.049932
0.124684,0.090524,1.052128
0.119072,0.089548,1.050176
0.115900,0.089792,1.050420
0.110532,0.089304,1.051396
0.109312,0.088572,1.050664
0.103944,0.091012,1.053836
0.100040,0.093696,1.053104
0.094184,0.095648,1.051884
0.091256,0.099064,1.042368
0.089060,0.098332,1.055300
0.086620,0.100772,1.057496
0.083692,0.103700,1.038220
0.082472,0.106140,1.050664
0.080276,0.104432,1.049932
0.078080,0.099308,1.035292
0.076128,0.095160,1.043100
0.073932,0.088572,1.049688
0.069784,0.075396,1.041392
0.069540,0.061488,1.044808
0.070028,0.048068,1.043832
0.069540,0.034648,1.047492
0.076128,0.021228,1.056032
0.074908,-0.000732,1.058716
0.006588,-0.741516,0.959896
0.006100,0.044164,1.103612
0.078080,0.442860,1.143628
0.151768,0.039284,1.053592
0.114192,0.103700,1.057984
0.100772,0.087352,1.092876
0.081984,0.045628,1.099952
0.068076,0.030500,1.087264
0.045384,0.001952,1.085068
0.045628,0.030500,1.078968
0.079056,0.093208,1.074576
0.087352,0.099552,1.073600
0.071980,0.091256,1.069940
0.053680,0.076616,1.074088
0.042456,0.063928,1.075796
0.031720,0.051240,1.072624
0.025864,0.047336,1.070428
0.024644,0.064416,1.064816
0.023668,0.092964,1.055544
0.024644,0.109556,1.050664
0.012932,0.097356,1.042856
0.002928,0.072712,1.037488
-0.000732,0.057584,1.033096
-0.002684,0.048068,1.027972
-0.008540,0.057096,1.023092
-0.020984,0.073200,1.014552
-0.028792,0.069540,1.007720
-0.030256,0.050752,1.000400
-0.030744,0.042700,0.997960
-0.033184,0.038064,0.991128
-0.036844,0.028548,0.984784
-0.038552,0.024400,0.979904
-0.041236,0.020496,0.969656
-0.041724,0.012200,0.963800
-0.040748,0.006588,0.963556
-0.035868,-0.001220,0.958676
-0.031232,-0.006588,0.960384
-0.028548,-0.012444,0.959164
-0.026596,-0.017324,0.959896
-0.024156,-0.020740,0.964532
-0.020252,-0.025620,0.962580
-0.015860,-0.029524,0.968680
-0.010980,-0.032452,0.973560
-0.009272,-0.035624,0.974780
-0.019032,-0.038064,0.986248
-0.025864,-0.039040,0.987224
-0.029280,-0.039528,0.989664
-0.027084,-0.041480,0.994056
-0.031232,-0.044408,0.996252
-0.029036,-0.049044,1.000400
-0.028060,-0.050264,1.001620
-0.023912,-0.055144,1.003328
-0.026108,-0.055632,1.004548
-0.024644,-0.058316,1.005280
-0.023668,-0.060268,1.007232
-0.019520,-0.059780,1.009184
-0.011956,-0.064660,1.010160
-0.011224,-0.065636,1.009916
-0.007320,-0.067100,1.004792
-0.005368,-0.067588,1.005524
-0.004392,-0.064416,1.001864
-0.002684,-0.061488,1.000888
-0.000732,-0.058560,0.999668
0.000976,-0.055876,0.994788
0.003172,-0.055144,0.993568
0.004636,-0.049288,0.981368
0.007564,-0.044408,0.976732
0.011956,-0.040992,0.973072
0.017568,-0.036356,0.957944
0.020008,-0.031964,0.953308
0.021716,-0.029524,0.949160
0.027084,-0.027816,0.945256
0.031476,-0.025132,0.939888
0.033184,-0.021472,0.933788
0.035136,-0.020252,0.935984
0.039040,-0.018300,0.934032
0.043432,-0.017324,0.934276
0.044408,-0.015860,0.931592
0.048312,-0.015860,0.929884
0.048312,-0.014884,0.936228
0.047824,-0.014640,0.937692
0.047824,-0.015372,0.940132
0.048556,-0.013176,0.945256
0.048800,-0.011712,0.950380
0.047824,-0.010492,0.952332
0.049776,-0.009272,0.961360
0.049532,-0.007076,0.966728
0.049776,-0.006100,0.973804
0.048068,-0.004636,0.974048
0.049288,-0.002928,0.981124
0.049532,-0.001220,0.987468
0.049288,-0.004148,0.991128
0.051728,-0.004880,0.995032
0.051972,-0.007076,0.997228
0.055632,-0.007320,1.000644
0.058072,-0.009516,1.001132
0.057828,-0.010248,1.003084
0.061000,-0.013176,1.004548
0.061976,-0.013908,1.005524
0.062952,-0.015372,1.009916
0.064416,-0.016592,1.009428
0.063684,-0.017324,1.008208
0.065880,-0.017568,1.006744
0.066856,-0.018056,1.005280
0.068564,-0.017080,1.005280
0.070028,-0.017324,1.002840
0.073200,-0.015616,1.000644
0.075640,-0.018788,1.000400
0.078080,-0.018056,0.996496
0.079056,-0.017568,0.994788
0.082472,-0.017568,0.995276
0.083936,-0.017080,0.993080
0.084180,-0.018788,0.989176
0.087596,-0.018544,0.989176
0.090036,-0.019032,0.983076
0.092720,-0.018788,0.984052
0.092232,-0.017812,0.983808
0.090768,-0.016836,0.981124
0.092232,-0.015372,0.981124
0.091500,-0.012688,0.978928
0.092232,-0.012932,0.982100
0.091500,-0.010980,0.982344
0.092476,-0.012444,0.982344
0.092964,-0.013420,0.984540
0.093696,-0.012444,0.986004
0.094428,-0.010248,0.989664
0.093452,-0.008052,0.992104
0.093208,-0.010736,0.991128
0.096624,-0.012200,0.992348
0.098332,-0.012444,0.992104
0.098576,-0.012688,0.991372
0.101016,-0.012932,0.997716
0.104676,-0.015372,0.995520
0.104432,-0.014640,0.994056
0.104432,-0.018300,0.998204
0.103700,-0.014884,0.996740
0.104432,-0.014396,0.998204
0.109068,-0.012688,0.995764
0.107604,-0.011956,0.996252
0.112972,-0.012200,0.994056
0.112972,-0.009760,0.991372
0.116388,-0.008784,0.992104
0.116876,-0.008296,0.987956
0.120292,-0.007808,0.978928
0.121024,-0.006588,0.985028
0.121512,-0.004148,0.980148
0.123464,-0.004148,0.972584
0.126148,-0.004636,0.969168
0.127124,-0.008052,0.971364
0.129808,-0.006588,0.967216
0.131760,-0.009028,0.963312
0.131760,-0.007808,0.960384
0.135908,-0.007564,0.958188
0.133712,-0.009028,0.956480
0.132736,-0.010004,0.955260
0.134200,-0.007564,0.954772
0.133224,-0.007320,0.953064
0.133468,-0.007076,0.953796
0.130784,-0.008784,0.954528
0.128832,-0.008296,0.958676
0.128344,-0.007808,0.959896
0.127124,-0.006832,0.962092
0.126880,-0.008540,0.967948
0.127856,-0.007320,0.968680
0.125172,-0.007808,0.968436
0.123708,-0.008296,0.972096
0.123952,-0.009760,0.975512
0.122976,-0.007564,0.976488
0.123952,-0.007808,0.981612
0.122976,-0.009028,0.980392
0.124684,-0.009272,0.985272
0.127368,-0.009272,0.983076
0.127124,-0.011224,0.982100
0.130540,-0.010248,0.983564
0.134932,-0.026840,0.950624
0.155672,-0.022204,0.906704
0.128100,-0.009760,1.021872
0.133224,-0.014396,0.972340
0.157624,-0.009516,0.944280
0.147376,-0.009028,0.956968
0.157380,-0.009272,0.921588
0.164456,-0.009760,0.974048
0.161284,-0.013420,0.933788
0.165920,-0.012932,0.952576
0.168604,-0.011224,0.952820
0.175924,-0.010004,0.953308
0.176168,-0.008296,0.955016
0.182512,-0.006344,0.964776
0.187148,-0.007808,0.971608
0.191296,-0.006588,0.979660
0.199348,-0.007076,0.986248
0.204472,-0.007320,0.993812
0.212524,-0.006588,0.996252
0.220576,-0.008296,0.987712
0.217160,-0.001708,1.016748
0.233020,-0.003416,0.990884
0.238388,-0.002196,1.016260
0.237656,-0.002196,1.004060
0.244488,-0.003904,1.005768
0.244244,-0.004148,1.020896
0.244976,-0.001708,1.010648
0.244976,-0.000976,1.026508
0.240340,0.001708,1.032852
0.237412,0.007320,1.036024
0.228628,0.014152,1.045540
0.220088,0.017568,1.053592
0.209596,0.022692,1.062132
0.193980,0.028304,1.071648
0.180072,0.034892,1.079700
0.163724,0.042212,1.095560
0.144692,0.050508,1.101172
0.130540,0.055876,1.118984
0.112728,0.065880,1.130940
0.095160,0.072224,1.131672
0.075884,0.081496,1.146312
0.062464,0.084912,1.144848
0.049776,0.089060,1.143872
0.038552,0.096136,1.155096
0.013420,0.108580,1.150704
0.009516,0.107360,1.154364
0.000732,0.110044,1.138748
0.000000,0.111020,1.117032
-0.000244,0.111264,1.109712
0.001220,0.106628,1.097512
0.003660,0.101504,1.088240
0.008784,0.095892,1.084092
0.013176,0.090036,1.075796
0.017568,0.087840,1.070672
0.022204,0.086864,1.060912
0.025132,0.085400,1.054324
0.022204,0.087596,1.050664
0.025132,0.090280,1.038464
0.022692,0.092964,1.035536
0.019764,0.095404,1.037732
0.014396,0.099552,1.032852
0.007320,0.104432,1.030900
0.000976,0.107848,1.034072
-0.001952,0.111264,1.032364
-0.010492,0.118584,1.032364
-0.016104,0.125416,1.031876
-0.020008,0.131028,1.034316
-0.025376,0.132980,1.037488
-0.030012,0.137616,1.037732
-0.032940,0.138592,1.040172
-0.034404,0.142740,1.041636
-0.036600,0.145912,1.044808
-0.036844,0.151280,1.046516
-0.036600,0.151768,1.045784
-0.037576,0.153476,1.048956
-0.036600,0.158356,1.047004
-0.035380,0.163968,1.049200
-0.037088,0.167384,1.050908
-0.036356,0.169092,1.049932
-0.038064,0.172020,1.050908
-0.039528,0.171288,1.047492
-0.037332,0.171532,1.049688
-0.035624,0.173728,1.054324
-0.035136,0.174948,1.051640
-0.032208,0.173484,1.053348
-0.030744,0.175924,1.050664
-0.028548,0.173728,1.051640
-0.023912,0.173484,1.050420
-0.017080,0.173972,1.049688
-0.010492,0.172020,1.041880
-0.002440,0.169580,1.043344
0.012932,0.168604,1.034316
0.022936,0.169092,1.031876
0.032940,0.167384,1.028460
0.041236,0.167384,1.026508
0.048800,0.168360,1.024312
0.057828,0.171532,1.017236
0.068320,0.173728,1.016504
0.072468,0.175680,1.005524
0.078812,0.177144,1.001132
0.086620,0.181536,0.998204
0.092476,0.183732,0.992104
0.100528,0.185196,0.985028
0.102724,0.187880,0.977952
0.108580,0.183732,0.970144
0.114680,0.185196,0.966728
0.118096,0.185196,0.950868
0.123708,0.182268,0.949892
0.127612,0.182024,0.941596
0.129808,0.179828,0.935252
0.133468,0.177388,0.928176
0.135420,0.175192,0.921100
0.132980,0.170800,0.905240
0.133468,0.169824,0.913048
0.133956,0.169580,0.898652
0.131028,0.164456,0.895968
0.128100,0.164944,0.895236
0.125416,0.159820,0.895236
0.119316,0.157868,0.885964
0.113704,0.158112,0.887428
0.103700,0.157868,0.889136
0.099064,0.157868,0.885720
0.094184,0.158356,0.880352
0.091744,0.159088,0.882548
0.088816,0.158356,0.891088
0.085156,0.159088,0.887916
0.080032,0.160064,0.894260
0.076860,0.159820,0.896212
0.073932,0.161284,0.901336
0.067100,0.164456,0.904020
0.062952,0.165676,0.909144
0.061000,0.167872,0.908900
0.055632,0.167872,0.911096
0.053192,0.170800,0.912072
0.049044,0.171044,0.915244
0.047824,0.172264,0.913536
0.044896,0.168848,0.917440
0.045872,0.166652,0.915732
0.047336,0.164456,0.923296
0.046604,0.160796,0.924516
0.050508,0.156892,0.927688
0.050508,0.155916,0.928908
0.050264,0.152012,0.937448
0.052216,0.150792,0.940620
0.052948,0.150060,0.947696
0.056364,0.148840,0.950380
0.058072,0.150548,0.951844
0.058804,0.150304,0.954284
0.062220,0.153232,0.955016
0.063928,0.155672,0.957212
0.066612,0.159576,0.960628
0.075640,0.167140,0.955260
0.081496,0.168360,0.954772
0.088816,0.168848,0.954284
0.092232,0.170068,0.953308
0.101016,0.169092,0.950136
0.110532,0.170556,0.955504
0.119072,0.172508,0.951600
0.128832,0.172020,0.950868
0.136152,0.170068,0.954284
0.144204,0.166896,0.951600
0.153476,0.165432,0.946720
0.163236,0.164944,0.953308
0.174704,0.167628,0.946476
0.182268,0.171288,0.953552
0.190320,0.169580,0.959164
0.198616,0.167140,0.955260
0.205448,0.167628,0.955748
0.211060,0.170800,0.956968
0.216916,0.171776,0.965752
0.223504,0.177388,0.973560
0.225944,0.183732,0.966972
0.232044,0.187880,0.966972
0.237656,0.188856,0.975268
0.240340,0.187636,0.974780
0.246684,0.189344,0.971852
0.251076,0.190564,0.977220
0.254004,0.192760,0.984784
0.257176,0.190808,0.987224
0.258396,0.192028,0.993568
0.260836,0.192516,0.990396
0.263764,0.190808,1.059936
0.262544,0.192272,1.000156
0.258884,0.191540,1.000400
0.256200,0.194712,1.000644
0.250832,0.195932,1.002108
0.244976,0.200568,1.001376
0.238388,0.203252,1.000644
0.230336,0.204960,1.002840
0.223992,0.206180,1.000888
0.217892,0.207400,0.998692
0.214232,0.209596,0.999180
0.208620,0.209596,0.998692
0.204472,0.205692,0.991372
0.201788,0.203496,0.986492
0.199104,0.203008,0.986248
0.197640,0.198616,0.980880
0.192516,0.196176,0.973316
0.190564,0.194956,0.968924
0.190320,0.193736,0.962580
0.190564,0.190320,0.958188
0.189588,0.188124,0.955260
0.190320,0.187148,0.947208
0.190076,0.182756,0.942816
0.189588,0.180560,0.937448
0.188612,0.178120,0.937448
0.188612,0.174704,0.934520
0.189100,0.170312,0.935496
0.191052,0.165920,0.935496
0.193492,0.162504,0.935740
0.191540,0.159820,0.938912
0.190320,0.157868,0.939156
0.191296,0.155428,0.941352
0.191052,0.151768,0.941108
0.192028,0.150060,0.944524
0.196176,0.145668,0.946964
0.196176,0.143716,0.952088
0.200324,0.141276,0.948672
0.203008,0.137128,0.953552
0.206180,0.134688,0.954040
0.209596,0.131760,0.952576
0.211792,0.128588,0.954284
0.213500,0.125660,0.953308
0.216916,0.122732,0.952088
0.221552,0.118828,0.950868
0.223992,0.112728,0.946964
0.228872,0.109800,0.950380
0.231800,0.107116,0.947452
0.235216,0.104188,0.948916
0.238144,0.102480,0.948428
0.238632,0.099064,0.945256
0.242292,0.098576,0.943304
0.241804,0.099308,0.942816
0.240340,0.099796,0.941596
0.239120,0.101260,0.939400
0.239608,0.101016,0.937936
0.238632,0.104188,0.935984
0.237412,0.108580,0.934764
0.235948,0.108092,0.937692
0.235948,0.111752,0.936472
0.234484,0.113948,0.936472
0.233264,0.113948,0.933056
0.232532,0.114436,0.933056
0.233020,0.115412,0.933300
0.233508,0.115656,0.937936
0.233996,0.117120,0.936228
0.233752,0.115168,0.937692
0.235704,0.113704,0.933056
0.233508,0.114436,0.874740
0.238144,0.114924,0.932324
0.252540,0.117852,0.898164
0.243756,0.110044,0.846680
0.253516,0.130784,0.994056
0.255956,0.126392,0.894748
0.254492,0.128344,0.781776
0.252296,0.133712,0.974536
0.246196,0.135420,0.908900
0.248636,0.135176,0.874008
0.257908,0.131516,0.931348
0.247660,0.130052,0.912560
0.244000,0.131760,0.910120
0.245952,0.129320,0.936228
0.247904,0.128832,0.929884
0.246440,0.127612,0.933300
0.250100,0.123220,0.954284
0.253028,0.119072,0.957456
0.253760,0.114436,0.962336
0.253516,0.112240,0.974292
0.256688,0.111020,0.977708
0.257420,0.110532,0.977708
0.258396,0.111752,0.975512
0.266448,0.108580,0.988200
0.263276,0.109068,0.981612
0.258640,0.111996,0.988444
0.252296,0.110776,0.998448
0.252296,0.111752,1.000400
0.245220,0.110532,0.995276
0.237412,0.109068,0.997960
0.228628,0.112484,1.001864
0.216672,0.116632,1.005036
0.207644,0.118584,1.007232
0.196420,0.119804,1.014064
0.170556,0.123708,1.020164
0.159576,0.125904,1.022116
0.148352,0.127856,1.030656
0.136884,0.130296,1.026996
0.129564,0.131516,1.031632
0.119072,0.132980,1.035048
0.113948,0.136884,1.032852
0.107360,0.133956,1.031144
0.103700,0.132492,1.030656
0.104188,0.132980,1.027972
0.104188,0.132248,1.023092
0.106628,0.127856,1.016504
0.112484,0.128344,1.014552
0.115900,0.127124,1.007476
0.122244,0.123464,1.000644
0.129320,0.124684,1.000156
0.137860,0.123464,0.995764
0.147376,0.121512,0.986248
0.157380,0.120292,0.977220
0.167628,0.121268,0.979904
0.177632,0.121268,0.978684
0.188856,0.122000,0.966972
0.197152,0.118096,0.966728
0.205692,0.116876,0.969412
0.209840,0.112972,0.972340
0.217648,0.111508,0.973072
0.221796,0.111508,0.980392
0.225212,0.111752,0.990640
0.225944,0.111752,0.999180
0.222040,0.113948,1.002108
0.217648,0.113704,1.013820
0.199836,0.119560,1.040416
0.191784,0.121024,1.049444
0.175192,0.124440,1.066036
0.161772,0.122976,1.077748
0.144692,0.126392,1.088728
0.125660,0.124196,1.102636
0.108336,0.123464,1.117032
0.091012,0.117852,1.129476
0.070516,0.113948,1.132160
0.054900,0.109068,1.133136
0.036356,0.105896,1.127524
0.020252,0.098576,1.141676
0.008296,0.092476,1.135576
-0.000976,0.088328,1.113860
-0.013908,0.080764,1.119228
-0.017324,0.071004,1.108736
-0.023180,0.062708,1.078968
-0.027572,0.053436,1.072380
-0.025376,0.044652,1.047492
-0.026596,0.031476,1.031876
-0.020740,0.017080,1.018944
-0.017324,0.007320,0.993324
-0.009272,-0.000976,0.979416
-0.000732,-0.010004,0.953552
0.004148,-0.022448,0.941352
0.011956,-0.026596,0.936960
0.015860,-0.027328,0.928176
0.016104,-0.027572,0.913292
0.016348,-0.024888,0.925980
0.013420,-0.023668,0.936960
0.010004,-0.019520,0.939644
0.003416,-0.014640,0.947696
-0.000488,-0.010492,0.957700
-0.003416,-0.004148,0.971608
-0.005856,0.000976,0.985760
-0.010736,0.005856,1.000400
-0.011956,0.012688,1.016260
-0.014884,0.016592,1.020896
-0.014884,0.020984,1.054324
-0.016836,0.020740,1.060668
-0.014884,0.024644,1.074820
-0.014640,0.024644,1.081652
-0.010736,0.024644,1.093608
-0.010248,0.024156,1.103124
-0.006832,0.023912,1.107028
-0.001220,0.021716,1.110688
0.000732,0.025620,1.111176
0.004392,0.025620,1.113372
0.008784,0.024644,1.109956
0.016592,0.026596,1.101660
0.024156,0.026840,1.093852
0.031476,0.028548,1.087508
0.041480,0.030256,1.072380
0.051240,0.031232,1.060912
0.056608,0.033428,1.051396
0.069052,0.034160,1.030656
0.080520,0.031720,1.022848
0.091012,0.036112,1.005524
0.101016,0.035136,0.997228
0.109312,0.037088,0.984296
0.117608,0.037088,0.973072
0.121268,0.036844,0.960384
0.128832,0.040016,0.951600
0.135420,0.043676,0.932080
0.136152,0.046848,0.918416
0.137372,0.050752,0.918416
0.136396,0.052948,0.915976
0.132248,0.056852,0.915732
0.126880,0.059536,0.915488
0.120292,0.064660,0.919636
0.113948,0.064904,0.923540
0.106384,0.069052,0.926224
0.100772,0.069784,0.931104
0.094428,0.069540,0.937204
0.088328,0.072712,0.944036
0.079544,0.071248,0.948428
0.075640,0.070760,0.956724
0.070516,0.068808,0.966484
0.066612,0.066368,0.969168
0.061732,0.066124,0.973316
0.058072,0.063684,0.978928
0.056120,0.061976,0.979904
0.054656,0.057340,0.985760
0.052216,0.053192,0.986004
0.052704,0.049044,0.986736
0.053924,0.043920,0.988200
0.052948,0.039772,0.987224
0.053924,0.035868,0.986004
0.056608,0.032696,0.986248
0.058560,0.027572,0.985516
0.061976,0.022448,0.983320
0.061976,0.016104,0.979172
0.064904,0.013908,0.977220
0.067344,0.012200,0.976244
0.069052,0.009516,0.973072
0.075152,0.005612,0.966484
0.076860,0.003904,0.964776
0.081008,0.001952,0.958432
0.083204,0.000976,0.956968
0.082960,0.000976,0.952820
0.083692,0.001952,0.949892
0.083936,0.003660,0.952332
0.085888,0.005612,0.950136
0.085644,0.006100,0.950136
0.085644,0.008784,0.948672
0.084912,0.008296,0.950380
0.083936,0.012444,0.949160
0.083692,0.014396,0.948428
0.085156,0.014884,0.951600
0.086132,0.017080,0.950868
0.085644,0.017324,0.954040
0.088328,0.017568,0.957944
0.087840,0.018056,0.956480
0.090768,0.019276,0.959896
0.092476,0.020984,0.961848
0.093452,0.025376,0.962580
0.096868,0.026108,0.964044
0.099064,0.026840,0.965508
0.101016,0.029036,0.964288
0.103944,0.029036,0.969656
0.110044,0.031232,0.965264
0.114192,0.029524,0.966728
0.120536,0.028548,0.969412
0.125416,0.027816,0.968436
0.132248,0.025620,0.968680
0.136640,0.026840,0.971852
0.141032,0.025620,0.970388
0.145668,0.024888,0.972340
0.148596,0.025132,0.972096
0.155184,0.028304,0.971608
0.155916,0.030500,0.973804
0.159088,0.032696,0.971120
0.162260,0.031964,0.972340
0.166164,0.032452,0.970632
0.169580,0.031232,0.970388
0.172508,0.031964,0.969168
0.173240,0.032940,0.971120
0.179584,0.032940,0.969168
0.179828,0.032940,0.970876
0.183488,0.032940,0.968680
0.186416,0.030500,0.969168
0.188368,0.031964,0.967460
0.190076,0.032208,0.967704
0.192516,0.029524,0.967460
0.194712,0.028792,0.964532
0.192272,0.028548,0.964776
0.191784,0.029036,0.964532
0.189832,0.030744,0.963068
0.191052,0.030988,0.966972
0.189100,0.031720,0.963556
0.189588,0.030256,0.962580
0.186904,0.030012,0.962092
0.184952,0.030256,0.960628
0.184708,0.030744,0.968436
0.183488,0.030012,0.965508
0.178852,0.031476,0.969412
0.177632,0.029524,0.973072
0.176412,0.030012,0.972828
0.174460,0.029768,0.980880
0.171288,0.030012,0.977220
0.167872,0.031720,0.982588
0.165188,0.030744,0.979660
0.161528,0.031476,0.986492
0.160552,0.028060,0.987956
0.161528,0.028304,0.987712
0.161772,0.028548,0.988932
0.162260,0.027572,0.989664
0.165188,0.025864,0.986980
0.168604,0.025132,0.987956
0.168116,0.021960,0.989420
0.172996,0.019276,0.988200
0.174704,0.017812,0.986492
0.180560,0.014152,0.985516
0.183732,0.012200,0.984784
0.186660,0.011224,0.982832
0.191296,0.011956,0.983076
0.193736,-0.002440,0.958676
0.229116,-0.007076,0.827160
0.184708,0.013908,1.071648
0.182268,0.011468,0.958920
0.219112,0.003660,0.799832
0.221552,0.017812,0.983076
0.198616,0.007564,0.964776
0.205936,0.009272,0.894748
0.218380,0.008540,0.993324
0.210084,0.001220,0.942572
0.209840,0.001952,0.966972
0.206912,0.004880,0.981856
0.210084,0.006100,0.983564
0.212280,0.009516,1.000888
0.209596,0.010736,1.010648
0.206912,0.010980,1.028216
0.211304,0.022204,1.039196
0.210816,0.022936,1.046028
0.210084,0.026596,1.059204
0.203984,0.031964,1.088972
0.196176,0.034404,1.084092
0.194468,0.032940,1.063352
0.192516,0.035868,1.088484
0.187636,0.035624,1.095804
0.178608,0.036112,1.085556
0.173728,0.037576,1.095804
0.163724,0.039528,1.094584
0.154452,0.040504,1.090192
0.144936,0.042944,1.091900
0.135664,0.044652,1.088728
0.130296,0.046604,1.081164
0.122000,0.050508,1.080188
0.116144,0.054656,1.070184
0.112240,0.055632,1.060912
0.112972,0.055632,1.058960
0.113460,0.056120,1.042856
0.115168,0.055632,1.039196
0.114924,0.058072,1.025044
0.118584,0.057584,1.015528
0.119560,0.060268,1.006500
0.120292,0.062952,1.000888
0.124928,0.061732,0.995276
0.130540,0.063440,0.991860
0.131272,0.063684,0.983564
0.135420,0.066124,0.983320
0.137616,0.067344,0.986736
0.134200,0.069052,0.988932
0.137372,0.069540,0.994056
0.134444,0.073444,1.000644
0.128832,0.077104,1.006988
0.125172,0.083204,1.012600
0.113460,0.096136,1.032852
0.104432,0.100284,1.036756
0.095892,0.108336,1.065060
0.082716,0.115412,1.075064
0.071736,0.126636,1.078968
0.059536,0.136884,1.086288
0.051728,0.146156,1.104100
0.040504,0.156160,1.103124
0.029768,0.162016,1.106784
0.021228,0.168360,1.110200
0.013176,0.174216,1.108004
0.005368,0.180804,1.105076
0.001220,0.183488,1.103124
0.000732,0.186172,1.092632
-0.001220,0.186416,1.084092
-0.003416,0.187880,1.075796
-0.005612,0.187636,1.066524
-0.001464,0.186660,1.055788
-0.000244,0.189588,1.042368
-0.000488,0.187636,1.026020
0.004392,0.189100,1.017968
0.003416,0.190076,1.007720
0.005368,0.188612,1.000400
0.009028,0.193736,0.999180
0.004636,0.195932,0.984296
0.003904,0.198860,0.986248
0.001220,0.204960,0.975512
-0.000488,0.208376,0.974780
-0.004148,0.210816,0.971608
-0.008784,0.214720,0.976244
-0.010248,0.219112,0.983076
-0.013176,0.220332,0.982344
-0.012444,0.221552,0.986248
-0.009272,0.223260,0.991860
-0.009028,0.223504,1.000156
-0.004880,0.224480,1.004792
-0.000732,0.223504,1.006256
0.004392,0.222284,1.013088
0.011712,0.221552,1.016260
0.018056,0.218868,1.017724
0.024644,0.216184,1.021628
0.030500,0.213012,1.025532
0.041480,0.211060,1.027484
0.050752,0.207888,1.028216
0.056852,0.207644,1.026020
0.065148,0.205204,1.024312
0.084668,0.198860,1.020164
0.092476,0.195932,1.014064
0.097112,0.193248,1.011136
0.104676,0.189588,1.002108
0.111508,0.185684,1.000644
0.120292,0.181780,0.995520
0.127612,0.179828,0.985028
0.133224,0.172996,0.980392
0.142252,0.171044,0.963312
0.148352,0.170800,0.964044
0.153964,0.164456,0.949404
0.155916,0.159820,0.939400
0.159820,0.156648,0.930616
0.162016,0.157868,0.926956
0.164700,0.156160,0.916952
0.166164,0.154940,0.915732
0.163480,0.152744,0.907680
0.161284,0.152500,0.898164
0.159332,0.151768,0.896700
0.156892,0.151036,0.891820
0.153720,0.150548,0.891088
0.148840,0.150792,0.893772
0.144936,0.152500,0.896700
0.138104,0.153720,0.901580
0.132004,0.153964,0.903044
0.122488,0.158600,0.902312
0.115900,0.160796,0.908656
0.108092,0.164700,0.912560
0.102968,0.167628,0.920368
0.097844,0.169824,0.923540
0.090036,0.171044,0.930616
0.079056,0.174216,0.937692
0.074420,0.174216,0.939156
0.070760,0.176168,0.942328
0.068564,0.178608,0.944280
0.068320,0.176656,0.950136
0.067832,0.176168,0.950136
0.068076,0.174704,0.950868
0.069784,0.170556,0.950136
0.069296,0.168848,0.949648
0.071980,0.167872,0.949404
0.072956,0.167140,0.949892
0.071980,0.164944,0.945744
0.074664,0.163968,0.945744
0.076860,0.161040,0.945256
0.077348,0.161528,0.941596
0.079056,0.159576,0.942816
0.081984,0.158600,0.941108
0.085888,0.156892,0.942572
0.088816,0.158844,0.945988
0.092476,0.157624,0.936228
0.096624,0.157136,0.934764
0.101504,0.159576,0.936716
0.106628,0.158112,0.933300
0.111996,0.158112,0.935984
0.117120,0.155916,0.932568
0.126392,0.157868,0.936228
0.129320,0.157380,0.938180
0.137616,0.155672,0.936960
0.145180,0.155672,0.936716
0.150060,0.155916,0.940376
0.156648,0.155916,0.939156
0.161772,0.153964,0.942084
0.167872,0.152988,0.943792
0.182268,0.152744,0.950868
0.187392,0.150548,0.952576
0.192028,0.149328,0.957456
0.199348,0.148352,0.957212
0.204228,0.150060,0.962336
0.209596,0.144692,0.961848
0.214232,0.145912,0.962824
0.217648,0.143960,0.962336
0.222772,0.146400,0.971120
0.227164,0.146644,0.966484
0.233996,0.146400,0.966972
0.237656,0.144204,0.968436
0.241316,0.140056,0.967704
0.245220,0.137128,0.966972
0.250588,0.138348,0.969656
0.253516,0.139568,0.971608
0.255468,0.136884,0.974292
0.257908,0.136640,0.971852
0.259616,0.135420,0.973072
0.260104,0.134200,0.977464
0.260836,0.136884,0.976732
0.259616,0.136640,0.978684
0.259128,0.139080,0.976976
0.260104,0.138592,0.977220
0.258396,0.138348,0.978928
0.255712,0.139324,0.975024
0.254736,0.138348,0.976000
0.251076,0.138592,0.972584
0.247660,0.140300,0.974780
0.244244,0.137372,0.975024
0.238632,0.137372,0.971608
0.235948,0.138592,0.972828
0.229848,0.136640,0.971364
0.219600,0.136396,0.970388
0.214720,0.135664,0.971120
0.208132,0.137372,0.970144
0.204472,0.132736,0.969412
0.199592,0.128344,0.967948
0.197152,0.128832,0.963068
0.195444,0.124928,0.964532
0.191540,0.122244,0.964776
0.190808,0.120292,0.965508
0.184952,0.118828,0.961848
0.184464,0.119560,0.960384
0.181536,0.115412,0.958432
0.178608,0.116876,0.956236
0.175192,0.115900,0.954528
0.172264,0.115412,0.955992
0.171776,0.113948,0.955504
0.170068,0.115412,0.953552
0.169336,0.113704,0.953552
0.166164,0.113948,0.955748
0.165188,0.113216,0.953796
0.167140,0.109068,0.951600
0.167384,0.109800,0.953064
0.173728,0.106872,0.950380
0.176412,0.106140,0.952820
0.181780,0.103700,0.955748
0.188368,0.101016,0.955748
0.192760,0.099064,0.956724
0.198372,0.097356,0.956724
0.203984,0.093452,0.955992
0.217160,0.081252,0.926956
0.258640,0.071248,0.763232
0.212036,0.108092,1.037000
0.216672,0.107848,0.975024
0.247416,0.093940,0.757620
0.253516,0.120780,0.967948
0.233020,0.108336,0.927444
0.250100,0.113948,0.975268
0.240096,0.106140,0.917196
0.243512,0.110776,0.932324
0.237168,0.115656,0.952820
0.237656,0.114192,0.952088
0.238632,0.117852,0.954040
0.238876,0.116876,0.967460
0.238388,0.116388,0.976244
0.240096,0.115168,0.979172
0.246196,0.117120,0.988688
0.247172,0.117608,0.992592
0.249124,0.113460,0.975512
0.250588,0.121024,1.000400
0.245952,0.122244,0.989908
0.250588,0.119804,0.970632
0.257176,0.120048,0.979660
0.253028,0.117852,0.974048
0.255224,0.115656,0.960140
0.259128,0.111996,0.969900
0.256688,0.109068,0.945988
0.257420,0.105896,0.935984
0.257176,0.109312,0.947452
0.256688,0.102968,0.938180
0.259616,0.102724,0.916220
0.261324,0.101260,0.937692
0.255468,0.100528,0.902068
0.257176,0.095648,0.917440
0.252052,0.094916,0.905240
0.247904,0.096868,0.902800
0.241804,0.097844,0.909632
0.239120,0.098088,0.915976
0.236192,0.094184,0.915976
0.232532,0.097844,0.919392
0.225700,0.098088,0.926224
0.223992,0.101016,0.931348
0.218624,0.102968,0.938912
0.214476,0.103456,0.946476
0.210816,0.106140,0.957456
0.206424,0.109800,0.969168
0.204228,0.109800,0.979660
0.198128,0.114680,0.989908
0.191052,0.119072,1.000400
0.183488,0.124440,1.007964
0.174216,0.130784,1.023336
0.166164,0.135176,1.030412
0.159820,0.142008,1.046760
0.152500,0.146644,1.055300
0.146156,0.150304,1.070916
0.140788,0.155428,1.083604
0.132004,0.162748,1.081408
0.124928,0.168360,1.093608
0.122732,0.165188,1.127036
0.118096,0.168360,1.109224
0.114192,0.175680,1.106052
0.110776,0.178852,1.117276
0.110288,0.176656,1.118252
0.107604,0.176656,1.100196
0.111996,0.170800,1.096536
0.116876,0.166896,1.090192
0.121756,0.165920,1.083360
0.125904,0.162260,1.067500
0.133224,0.158112,1.061400
0.143960,0.148352,1.040904
0.150060,0.141520,1.030412
0.158600,0.140788,1.024800
0.165920,0.140300,1.014064
0.173240,0.138348,1.007720
0.176900,0.137372,1.004304
0.181292,0.134932,1.004548
0.183976,0.134932,1.001132
0.182512,0.136152,1.005280
0.174216,0.135420,1.006988
0.166164,0.138592,1.013820
0.155916,0.138836,1.021628
0.144204,0.141764,1.030900
0.129564,0.142740,1.036268
0.118096,0.145912,1.049444
0.102968,0.147132,1.061156
0.088572,0.148596,1.071892
0.075640,0.145424,1.081408
0.057584,0.144448,1.089704
0.043432,0.143472,1.094340
0.029036,0.140788,1.099464
0.014152,0.137128,1.100440
0.001952,0.132004,1.098976
-0.007076,0.124684,1.095804
-0.016348,0.114436,1.092144
-0.023912,0.102236,1.087996
-0.029036,0.087596,1.077504
-0.030988,0.013664,1.054568
-0.029280,0.046116,1.043344
-0.030988,0.027816,1.030656
-0.029768,0.014396,1.017968
-0.030500,0.000000,1.006256
-0.027572,-0.011468,0.999180
-0.026108,-0.019520,0.992348
-0.027572,-0.027816,0.978196
-0.027328,-0.035136,0.968436
-0.028060,-0.038552,0.962824
-0.023424,-0.040748,0.956480
-0.023424,-0.040992,0.949648
-0.027816,-0.043676,0.946232
-0.029524,-0.042944,0.949648
-0.035136,-0.033428,0.949648
-0.048068,-0.029036,0.955504
-0.051728,-0.022692,0.964532
-0.057828,-0.017812,0.968436
-0.059780,-0.013908,0.976488
-0.061244,-0.010980,0.985760
-0.065880,-0.010736,0.994056
-0.069540,-0.010980,0.999912
-0.070516,-0.009028,1.001864
-0.071980,-0.006344,1.015040
-0.074908,-0.007564,1.021872
-0.073200,-0.009272,1.026752
-0.074176,-0.009028,1.039440
-0.073688,-0.011956,1.026264
-0.075640,-0.016592,1.037732
-0.067588,-0.023180,1.046516
-0.064660,-0.022936,1.045784
-0.059536,-0.023668,1.046272
-0.056608,-0.025864,1.033828
-0.048800,-0.030012,1.026996
-0.045384,-0.031964,1.024800
-0.037332,-0.035380,1.010404
-0.028792,-0.039528,1.006988
-0.020008,-0.044408,1.000400
-0.012688,-0.048312,0.995276
-0.005124,-0.051728,0.991616
-0.000244,-0.054168,0.973560
0.008540,-0.059536,0.970144
0.011956,-0.061244,0.962092
0.015372,-0.063684,0.956480
0.018544,-0.063440,0.951112
0.019764,-0.060512,0.948672
0.020496,-0.060512,0.947208
0.019276,-0.060024,0.943304
0.019032,-0.057096,0.946232
0.018056,-0.056852,0.947696
0.013908,-0.053192,0.944768
0.014152,-0.054656,0.949648
0.014884,-0.055388,0.953064
0.014884,-0.054900,0.956480
0.011712,-0.061976,0.961360
0.009272,-0.064172,0.967704
0.004880,-0.065636,0.976000
0.000244,-0.068320,0.984296
-0.000732,-0.070028,0.986248
-0.004880,-0.067588,0.995764
-0.011468,-0.068564,1.004304
-0.020496,-0.072956,1.006744
-0.023424,-0.074664,1.012112
-0.027572,-0.073932,1.017480
-0.032940,-0.072224,1.018212
-0.039528,-0.070760,1.018456
-0.042700,-0.072468,1.023580
-0.045140,-0.073688,1.022604
-0.045872,-0.073444,1.021872
-0.041724,-0.074420,1.024312
-0.042700,-0.075396,1.025776
-0.039528,-0.074664,1.021872
-0.040260,-0.077104,1.023824
-0.040992,-0.080032,1.020896
-0.039772,-0.081984,1.013332
-0.040748,-0.081740,1.015284
-0.040016,-0.083448,1.010404
-0.039528,-0.084912,1.011380
-0.036600,-0.081740,1.011380
-0.035868,-0.082716,1.009428
-0.030256,-0.082960,1.008940
-0.030988,-0.084424,1.005524
-0.030744,-0.083204,1.007476
-0.028060,-0.081740,1.005768
-0.028548,-0.084424,1.010648
-0.027084,-0.079056,1.013088
-0.028548,-0.076128,1.022116
-0.025620,-0.072712,1.021140
-0.025864,-0.071248,1.026020
-0.027572,-0.065880,1.028216
-0.022204,-0.063196,1.030412
-0.024644,-0.061732,1.037244
-0.023912,-0.061488,1.043100
-0.023180,-0.058804,1.045052
-0.022204,-0.056120,1.048956
-0.022204,-0.054656,1.053592
-0.018300,-0.050020,1.062376
-0.015860,-0.048800,1.062376
-0.013420,-0.050020,1.066036
-0.010980,-0.049532,1.068232
-0.007808,-0.048312,1.068476
-0.005368,-0.048312,1.066524
-0.000976,-0.048068,1.068720
0.000976,-0.047824,1.069452
0.003172,-0.050508,1.066768
0.009028,-0.053680,1.065304
0.012444,-0.053436,1.063108
0.016348,-0.055876,1.057252
0.020008,-0.055876,1.056032
0.027084,-0.060756,1.049444
0.029524,-0.061732,1.046028
0.030256,-0.061488,1.042856
0.033428,-0.062464,1.039928
0.032452,-0.060756,1.037732
0.031720,-0.060268,1.033828
0.031232,-0.060268,1.032608
0.027084,-0.057340,1.029680
0.025864,-0.057584,1.027728
0.026352,-0.054656,1.025288
0.023424,-0.056120,1.023580
0.023912,-0.056852,1.019920
0.023912,-0.054656,1.019188
0.024888,-0.053924,1.015040
0.023424,-0.056852,1.014796
0.021960,-0.053924,1.011380
0.019276,-0.053192,1.012600
0.016592,-0.050996,1.006500
0.011956,-0.050020,1.004060
0.014396,-0.050508,1.003084
0.012932,-0.049288,1.001620
0.014884,-0.052460,1.004548
0.014884,-0.052704,1.002352
0.015860,-0.052948,1.003816
0.015372,-0.054656,1.003084
0.014640,-0.055144,1.002596
0.017080,-0.057584,1.000888
0.019520,-0.054168,1.001132
0.020008,-0.055632,1.000644
0.021960,-0.052216,0.999912
0.024400,-0.052948,1.000644
0.023180,-0.051728,1.000156
0.025620,-0.054656,0.999424
0.028060,-0.052948,1.000400
0.030256,-0.053436,0.997716
0.034404,-0.051484,0.997716
0.038308,-0.050752,0.997472
0.037088,-0.052704,0.993568
0.062220,-0.044408,0.922564
0.028548,-0.051728,1.018456
0.031720,-0.040748,1.004792
0.064172,-0.048068,0.850584
0.074908,-0.029768,0.947208
0.047336,-0.037088,0.978684
0.051728,-0.038064,0.896700
0.068076,-0.033184,0.973560
0.060756,-0.041236,0.949892
0.059292,-0.040016,0.953064
0.055144,-0.043676,0.967948
0.060512,-0.045140,0.959164
0.064172,-0.044896,0.968436
0.067100,-0.042456,0.967216
0.069296,-0.044164,0.974780
0.073688,-0.041968,0.978684
0.080764,-0.044164,0.987956
0.086376,-0.046604,0.979172
0.094184,-0.042212,0.973804
0.096624,-0.038796,0.972828
0.101016,-0.043676,0.977952
0.109800,-0.040504,0.969168
0.114436,-0.040992,0.965752
0.119072,-0.040748,0.960384
0.125172,-0.042944,0.958188
0.131760,-0.043920,0.952332
0.134688,-0.043676,0.952576
0.139812,-0.044652,0.951844
0.144936,-0.045384,0.949892
0.144936,-0.044408,0.942572
0.151036,-0.044408,0.939644
0.152012,-0.042944,0.937448
0.151768,-0.039284,0.932568
0.154940,-0.039772,0.929640
0.159088,-0.038308,0.930616
0.159088,-0.034404,0.927200
0.161772,-0.033184,0.924760
0.162748,-0.031720,0.925736
0.164456,-0.032208,0.924516
0.164212,-0.032696,0.923540
0.166896,-0.031476,0.927444
0.165920,-0.029524,0.929152
0.170800,-0.030744,0.932812
0.171288,-0.029280,0.933544
0.172508,-0.025132,0.933300
0.173484,-0.026596,0.937936
0.172996,-0.024888,0.934276
0.171288,-0.023912,0.934520
0.172508,-0.022692,0.939400
0.172264,-0.019276,0.938424
0.172508,-0.019520,0.944280
0.174460,-0.019032,0.945012
0.176656,-0.016836,0.941108
0.176900,-0.018056,0.941840
0.179340,-0.021228,0.938424
0.182756,-0.024888,0.936716
0.185440,-0.027084,0.936228
0.187392,-0.030744,0.938668
0.191052,-0.030744,0.946720
0.192760,-0.028304,0.946232
0.192516,-0.027084,0.948672
0.189588,-0.028792,0.948672
0.189588,-0.030744,0.943304
0.188856,-0.030988,0.945256
0.186416,-0.027816,0.941596
0.186172,-0.025132,0.941352
0.187392,-0.022936,0.951356
0.188368,-0.020496,0.946720
0.190320,-0.020740,0.945744
0.194468,-0.022448,0.948672
0.194468,-0.025864,0.950136
0.196176,-0.024888,0.952332
0.196664,-0.024156,0.963312
0.201544,-0.025132,0.974292
0.198860,-0.024888,0.982832
0.196664,-0.023180,0.996252
0.192516,-0.017568,1.005280
0.185684,-0.007808,1.016016
0.175436,0.002684,1.028216
0.160308,0.015128,1.033340
0.141520,0.025376,1.045052
