ax,ay,az,gx,gy,gz
-0.207,-0.251,0.941,1.953,0.854,1.770
-0.209,-0.264,0.954,1.648,1.709,1.892
-0.211,-0.280,0.947,2.014,1.404,2.014
-0.210,-0.278,0.932,1.221,0.793,1.770
-0.204,-0.253,0.934,1.160,1.038,1.343
-0.204,-0.227,0.966,2.075,2.441,0.793
-0.215,-0.219,1.000,3.479,3.296,1.282
-0.223,-0.230,1.000,4.639,2.197,2.563
-0.220,-0.249,0.987,4.333,0.977,3.723
-0.225,-0.264,0.972,3.845,0.305,4.517
-0.216,-0.270,0.974,4.517,0.549,4.333
-0.209,-0.260,0.991,5.310,1.221,3.601
-0.214,-0.248,1.007,5.676,0.854,3.113
-0.219,-0.255,1.011,5.737,-0.366,3.479
-0.223,-0.273,0.998,5.554,-1.648,4.028
-0.220,-0.289,0.981,4.456,-2.319,4.089
-0.213,-0.287,0.967,3.540,-2.747,3.540
-0.210,-0.272,0.980,3.174,-2.625,2.686
-0.213,-0.262,0.996,2.625,-2.563,2.258
-0.222,-0.259,0.987,2.075,-3.601,2.441
-0.228,-0.271,0.959,1.953,-5.493,2.930
-0.229,-0.289,0.921,1.526,-6.348,3.540
-0.227,-0.301,0.894,0.977,-6.104,3.357
-0.215,-0.294,0.893,0.916,-4.822,2.625
-0.214,-0.271,0.918,0.977,-2.869,1.953
-0.222,-0.258,0.930,1.038,-2.380,1.526
-0.229,-0.259,0.919,1.526,-2.502,2.197
-0.232,-0.276,0.898,1.465,-2.625,3.235
-0.230,-0.293,0.881,0.916,-2.563,3.967
-0.224,-0.301,0.880,0.671,-1.892,3.662
-0.221,-0.280,0.900,0.854,-0.488,2.502
-0.225,-0.244,0.925,0.854,0.122,1.465
-0.237,-0.229,0.922,1.709,-0.061,1.770
-0.240,-0.240,0.899,2.319,-0.977,3.174
-0.236,-0.254,0.871,2.258,-1.282,4.395
-0.234,-0.267,0.856,2.319,-0.610,4.761
-0.229,-0.282,0.858,2.808,0.671,4.761
-0.228,-0.286,0.869,3.296,2.136,4.150
-0.229,-0.280,0.868,2.808,2.747,3.845
-0.226,-0.268,0.857,1.892,3.052,3.601
-0.227,-0.244,0.858,1.404,3.662,3.418
-0.231,-0.220,0.872,1.709,4.822,3.479
-0.233,-0.219,0.892,2.869,5.920,3.967
-0.224,-0.249,0.909,4.395,6.836,5.188
-0.216,-0.281,0.914,5.005,7.141,5.981
-0.210,-0.311,0.916,4.333,6.836,6.470
-0.213,-0.323,0.919,3.174,6.775,5.859
-0.213,-0.307,0.927,2.380,6.897,4.456
-0.217,-0.286,0.943,2.808,7.080,2.808
-0.225,-0.260,0.948,3.723,7.141,2.197
-0.225,-0.251,0.952,3.418,7.019,2.747
-0.218,-0.257,0.960,2.258,7.080,3.906
-0.208,-0.268,0.973,2.319,7.385,4.944
-0.208,-0.273,0.996,2.930,7.935,5.005
-0.216,-0.283,1.010,4.089,7.751,4.700
-0.218,-0.293,1.005,5.005,6.836,4.700
-0.216,-0.296,1.000,4.272,5.554,4.822
-0.211,-0.297,1.000,2.747,4.822,4.700
-0.212,-0.293,1.010,2.075,4.700,4.395
-0.220,-0.286,1.016,2.014,4.395,3.296
-0.231,-0.274,1.015,2.258,3.601,2.441
-0.228,-0.266,1.006,2.808,2.686,2.075
-0.223,-0.256,1.008,2.258,2.380,2.075
-0.226,-0.246,1.014,1.709,2.197,2.197
-0.227,-0.239,1.013,1.404,1.404,2.441
-0.226,-0.233,1.003,1.282,0.366,2.991
-0.221,-0.226,0.980,0.366,-0.732,3.845
-0.216,-0.206,0.959,-0.610,-1.465,4.761
-0.215,-0.186,0.943,-1.160,-1.709,6.165
-0.211,-0.188,0.933,-0.305,-1.648,7.874
-0.209,-0.214,0.924,1.099,-1.709,9.827
-0.205,-0.261,0.923,1.221,-1.343,11.169
-0.210,-0.310,0.925,0.854,-0.977,11.780
-0.215,-0.333,0.931,0.122,-0.793,10.986
-0.223,-0.312,0.939,-0.793,-0.610,9.216
-0.235,-0.283,0.949,-0.549,-0.610,7.202
-0.245,-0.268,0.942,0.793,-1.099,6.409
-0.246,-0.260,0.925,1.343,-1.892,6.470
-0.244,-0.263,0.906,1.709,-2.319,7.141
-0.244,-0.278,0.891,2.808,-2.319,7.812
-0.245,-0.285,0.889,2.808,-1.953,7.935
-0.253,-0.287,0.891,2.930,-1.343,7.751
-0.255,-0.283,0.897,3.784,-0.610,7.629
-0.256,-0.278,0.910,4.639,0.427,7.751
-0.245,-0.280,0.921,5.005,1.282,7.874
-0.231,-0.283,0.926,4.944,1.404,8.240
-0.222,-0.292,0.932,5.432,1.160,8.850
-0.219,-0.304,0.935,5.493,0.671,9.277
-0.225,-0.320,0.932,5.676,0.061,9.583
-0.220,-0.322,0.916,6.775,-0.977,9.216
-0.228,-0.307,0.911,7.446,-1.526,8.484
-0.241,-0.295,0.911,7.812,-1.404,8.301
-0.237,-0.290,0.911,9.094,-0.854,8.728
-0.237,-0.280,0.925,10.193,-0.244,9.705
-0.238,-0.280,0.935,10.681,0.061,10.925
-0.241,-0.309,0.932,11.475,-0.366,12.878
-0.237,-0.363,0.925,11.963,-0.549,15.015
-0.227,-0.408,0.925,10.742,-0.488,16.052
-0.229,-0.436,0.929,9.460,-0.366,15.503
-0.228,-0.454,0.934,9.949,-0.122,13.733
-0.217,-0.453,0.949,10.681,0.000,11.414
-0.219,-0.440,0.964,10.437,0.305,8.850
-0.230,-0.418,0.970,9.705,0.183,6.592
-0.233,-0.404,0.977,8.667,-0.610,4.944
-0.224,-0.404,0.986,8.179,-1.038,3.540
-0.230,-0.394,0.980,7.446,-1.526,1.770
-0.235,-0.373,0.962,5.493,-2.197,-0.122
-0.236,-0.349,0.935,4.578,-2.869,-1.343
-0.243,-0.317,0.918,4.272,-3.418,-2.563
-0.255,-0.298,0.921,3.906,-3.052,-3.235
-0.259,-0.316,0.934,3.784,-2.197,-2.991
-0.263,-0.329,0.944,3.906,-1.465,-3.113
-0.263,-0.333,0.938,3.479,-1.282,-3.845
-0.265,-0.329,0.940,3.296,-0.977,-4.395
-0.257,-0.323,0.949,4.089,-0.122,-5.127
-0.254,-0.290,0.959,4.028,0.671,-5.676
-0.255,-0.233,0.974,2.441,0.854,-5.676
-0.252,-0.203,0.982,1.587,0.183,-4.883
-0.247,-0.197,0.970,2.136,-0.732,-2.930
-0.247,-0.191,0.942,2.441,-1.831,-1.099
-0.253,-0.204,0.921,2.808,-2.258,0.305
-0.247,-0.240,0.911,4.028,-2.136,2.075
-0.240,-0.278,0.908,4.944,-1.770,2.869
-0.244,-0.318,0.911,5.493,-0.977,2.930
-0.241,-0.352,0.914,4.944,0.000,2.258
-0.242,-0.339,0.916,3.845,0.793,0.366
-0.246,-0.291,0.921,3.418,1.526,-1.526
-0.243,-0.245,0.928,4.517,2.136,-2.869
-0.252,-0.204,0.939,5.981,2.380,-2.808
-0.249,-0.190,0.936,6.775,2.380,-1.526
-0.233,-0.209,0.936,7.568,2.258,0.610
-0.220,-0.253,0.949,7.568,2.441,3.052
-0.222,-0.317,0.957,7.019,2.197,4.822
-0.232,-0.373,0.941,6.592,1.160,5.188
-0.238,-0.389,0.917,5.554,-0.061,3.418
-0.234,-0.363,0.902,4.028,-0.549,0.977
-0.241,-0.310,0.896,3.357,-0.122,-0.916
-0.255,-0.264,0.881,4.089,-0.183,-1.648
-0.249,-0.258,0.859,5.371,0.122,-1.038
-0.231,-0.266,0.851,5.615,1.099,0.122
-0.219,-0.281,0.864,4.456,3.418,1.465
-0.212,-0.308,0.887,2.441,5.493,2.625
-0.195,-0.318,0.917,-0.793,6.958,2.747
-0.197,-0.298,0.946,-4.272,7.385,2.197
-0.199,-0.272,0.957,-6.836,6.958,1.404
-0.201,-0.267,0.969,-8.606,5.981,1.221
-0.205,-0.292,0.977,-10.559,4.822,1.648
-0.202,-0.304,0.957,-11.780,3.540,1.404
-0.198,-0.292,0.933,-12.146,1.892,0.122
-0.209,-0.254,0.921,-11.292,1.282,-1.892
-0.229,-0.222,0.906,-9.644,1.221,-3.540
-0.229,-0.204,0.889,-7.263,1.587,-3.784
-0.242,-0.173,0.893,-5.920,2.869,-3.723
-0.255,-0.135,0.909,-4.639,5.066,-3.296
-0.252,-0.122,0.939,-2.380,7.385,-1.770
-0.241,-0.153,0.981,0.305,9.338,0.610
-0.227,-0.225,1.016,2.258,10.376,3.296
-0.220,-0.294,1.030,1.709,9.583,4.639
-0.231,-0.327,1.034,0.366,7.751,3.784
-0.242,-0.331,1.032,-1.038,5.493,1.831
-0.252,-0.317,1.021,-1.831,3.601,-0.305
-0.256,-0.272,1.005,-2.808,1.953,-1.892
-0.270,-0.201,1.001,-3.784,0.671,-2.686
-0.281,-0.150,1.000,-3.540,-0.488,-1.770
-0.276,-0.142,0.994,-2.441,-1.465,0.244
-0.279,-0.141,0.975,-1.770,-2.197,3.235
-0.279,-0.162,0.946,-0.305,-2.747,6.042
-0.278,-0.214,0.917,1.770,-2.930,8.850
-0.271,-0.267,0.908,3.540,-2.441,10.498
-0.270,-0.307,0.913,4.150,-1.587,10.925
-0.267,-0.329,0.923,4.272,-0.610,10.071
-0.257,-0.321,0.928,4.578,-0.244,8.606
-0.260,-0.285,0.934,4.761,-0.610,7.263
-0.264,-0.244,0.934,4.700,-0.854,6.653
-0.261,-0.224,0.936,4.822,-0.854,7.568
-0.255,-0.242,0.939,5.127,-0.854,9.338
-0.251,-0.269,0.929,5.188,-1.221,10.925
-0.247,-0.270,0.918,4.333,-1.770,11.414
-0.251,-0.271,0.914,3.662,-1.648,11.719
-0.251,-0.301,0.910,4.028,-1.526,12.146
-0.250,-0.320,0.908,3.540,-1.221,11.658
-0.251,-0.316,0.898,2.502,-1.038,10.376
-0.250,-0.311,0.882,2.441,-0.610,9.094
-0.251,-0.312,0.869,2.747,-0.061,8.179
-0.252,-0.300,0.867,2.441,1.221,7.568
-0.250,-0.276,0.887,1.892,2.686,7.263
-0.240,-0.268,0.908,0.916,4.333,7.812
-0.251,-0.274,0.928,-0.305,4.944,8.606
-0.250,-0.292,0.921,-0.671,4.883,9.583
-0.247,-0.324,0.905,-0.183,4.456,10.376
-0.250,-0.356,0.899,-0.488,5.005,10.315
-0.245,-0.377,0.905,-1.099,6.104,9.216
-0.235,-0.376,0.923,-1.648,6.714,7.629
-0.233,-0.343,0.945,-2.319,6.775,5.615
-0.247,-0.307,0.958,-3.296,6.165,4.456
-0.256,-0.286,0.957,-3.967,5.188,4.150
-0.263,-0.287,0.945,-3.052,3.784,4.395
-0.262,-0.287,0.929,-1.831,2.930,4.395
-0.272,-0.286,0.921,-1.221,2.930,4.211
-0.274,-0.288,0.918,-0.366,3.418,4.211
-0.271,-0.294,0.925,0.305,4.456,4.517
-0.264,-0.297,0.937,0.549,5.493,4.395
-0.265,-0.288,0.953,1.160,5.981,4.089
-0.269,-0.288,0.955,2.136,6.104,4.028
-0.259,-0.301,0.958,2.808,5.798,4.517
-0.252,-0.315,0.968,2.625,5.371,4.639
-0.249,-0.318,0.973,2.014,4.883,4.028
-0.242,-0.315,0.975,1.587,3.784,3.235
-0.244,-0.299,0.973,0.977,2.502,2.197
-0.248,-0.282,0.964,0.916,1.099,1.343
-0.246,-0.267,0.951,0.977,0.061,1.465
-0.250,-0.266,0.941,1.099,-0.244,1.953
-0.255,-0.287,0.926,1.648,-0.671,2.686
-0.252,-0.306,0.911,2.319,-0.671,3.052
-0.250,-0.304,0.908,2.197,0.244,2.502
-0.251,-0.292,0.911,2.380,1.343,1.770
-0.253,-0.282,0.926,2.258,2.563,1.831
-0.250,-0.280,0.937,2.258,2.991,1.953
-0.251,-0.286,0.935,2.441,3.052,2.075
-0.243,-0.277,0.932,2.625,3.113,1.892
-0.244,-0.267,0.946,2.319,3.357,1.831
-0.245,-0.279,0.959,2.319,3.479,2.258
-0.245,-0.302,0.958,2.075,2.991,2.563
-0.245,-0.320,0.947,1.343,2.075,2.014
-0.245,-0.312,0.930,0.854,1.587,0.793
-0.238,-0.266,0.924,0.793,1.343,-0.610
-0.245,-0.239,0.937,1.465,1.587,-0.977
-0.251,-0.244,0.943,2.502,1.709,-0.305
-0.246,-0.270,0.938,2.563,1.404,0.671
-0.247,-0.292,0.929,1.892,1.526,0.977
-0.252,-0.297,0.914,1.953,1.526,0.549
-0.250,-0.271,0.905,2.380,2.075,-0.427
-0.247,-0.227,0.924,3.174,2.930,-1.038
-0.258,-0.205,0.953,2.991,3.906,-0.366
-0.255,-0.231,0.963,3.296,3.845,1.587
-0.247,-0.274,0.953,3.662,3.357,3.174
-0.244,-0.300,0.935,3.174,2.686,3.174
-0.239,-0.292,0.925,2.869,2.563,2.258
-0.250,-0.260,0.934,2.563,2.930,0.977
-0.254,-0.244,0.945,2.991,3.113,0.916
-0.249,-0.253,0.946,3.479,2.808,1.953
-0.247,-0.277,0.935,3.540,2.258,2.808
-0.246,-0.288,0.919,3.723,2.014,2.747
-0.239,-0.280,0.908,4.333,2.258,1.770
-0.237,-0.256,0.920,4.639,3.235,1.099
-0.245,-0.249,0.946,4.150,4.089,1.404
-0.250,-0.262,0.950,3.845,3.845,2.502
-0.244,-0.285,0.939,4.028,3.113,3.357
-0.239,-0.296,0.927,3.601,2.869,3.296
-0.241,-0.290,0.922,3.540,2.930,2.625
-0.241,-0.267,0.933,3.845,3.357,1.892
-0.248,-0.253,0.956,3.784,3.845,2.014
-0.250,-0.269,0.967,3.845,3.845,2.869
-0.251,-0.288,0.958,3.967,3.052,3.357
-0.247,-0.302,0.941,4.150,2.441,3.235
-0.241,-0.297,0.939,4.150,2.502,2.991
-0.240,-0.279,0.960,4.150,3.174,2.197
-0.241,-0.271,0.987,4.150,3.662,2.075
-0.247,-0.281,1.000,3.601,3.113,2.380
-0.241,-0.294,0.984,3.052,1.770,2.502
-0.238,-0.309,0.958,2.991,0.183,2.502
-0.240,-0.306,0.939,2.625,-0.244,1.709
-0.242,-0.281,0.942,2.869,0.061,0.366
-0.236,-0.248,0.959,3.296,0.610,-0.427
-0.244,-0.228,0.978,3.418,0.793,-0.122
-0.248,-0.233,0.975,3.540,-0.183,0.977
-0.246,-0.261,0.949,3.967,-1.282,2.136
-0.242,-0.289,0.930,4.272,-1.465,2.808
-0.237,-0.298,0.926,4.333,-0.854,2.136
-0.232,-0.291,0.937,4.028,0.000,1.221
-0.229,-0.282,0.966,3.418,0.732,0.549
-0.236,-0.283,0.986,2.625,0.427,0.549
-0.241,-0.296,0.967,2.502,-0.793,0.366
-0.242,-0.302,0.933,2.502,-2.014,0.061
-0.244,-0.288,0.912,2.930,-2.197,-0.488
-0.246,-0.266,0.901,3.601,-1.831,-0.854
-0.247,-0.273,0.906,3.906,-0.671,-0.549
-0.246,-0.292,0.912,3.479,0.305,0.061
-0.239,-0.315,0.911,3.113,0.671,0.122
-0.235,-0.325,0.907,2.869,1.343,-0.305
-0.228,-0.306,0.917,2.319,2.258,-1.221
-0.235,-0.271,0.936,1.892,2.808,-2.258
-0.237,-0.252,0.956,1.953,2.930,-2.258
-0.237,-0.247,0.959,2.075,2.441,-1.648
-0.241,-0.259,0.949,2.319,1.221,-0.854
-0.245,-0.268,0.933,2.258,0.549,-0.549
-0.248,-0.278,0.927,2.136,0.488,-0.549
-0.243,-0.275,0.925,2.075,0.793,-0.793
-0.245,-0.265,0.933,2.319,1.282,-1.404
-0.253,-0.257,0.935,2.808,1.465,-1.709
-0.254,-0.262,0.929,3.296,1.465,-1.404
-0.256,-0.268,0.919,3.601,1.404,-1.282
-0.248,-0.267,0.913,3.845,1.709,-1.648
-0.250,-0.256,0.912,3.784,2.075,-2.136
-0.253,-0.231,0.915,2.563,2.441,-2.197
-0.259,-0.215,0.918,2.625,2.441,-1.465
-0.258,-0.214,0.920,3.662,2.441,-0.366
-0.256,-0.228,0.925,3.784,2.747,0.671
-0.253,-0.248,0.929,3.662,3.174,1.831
-0.253,-0.259,0.933,3.723,3.540,2.136
-0.259,-0.256,0.929,3.845,3.479,2.197
-0.256,-0.261,0.931,3.296,3.601,2.747
-0.254,-0.267,0.942,2.502,4.150,2.991
-0.256,-0.269,0.959,1.892,4.883,2.686
-0.261,-0.265,0.966,1.221,4.639,2.258
-0.266,-0.242,0.967,0.366,3.784,1.831
-0.276,-0.217,0.956,0.854,2.869,1.709
-0.280,-0.202,0.944,1.587,2.686,2.258
-0.280,-0.195,0.945,1.953,2.563,3.235
-0.284,-0.208,0.957,2.380,2.808,4.395
-0.276,-0.234,0.961,2.686,2.808,5.737
-0.276,-0.256,0.964,2.380,2.625,6.714
-0.273,-0.266,0.963,2.014,2.625,7.080
-0.277,-0.272,0.964,2.686,2.441,6.958
-0.277,-0.282,0.967,3.540,2.197,6.897
-0.276,-0.296,0.966,3.723,1.587,6.958
-0.270,-0.305,0.960,3.845,1.099,7.202
-0.264,-0.305,0.956,3.601,0.732,6.775
-0.263,-0.301,0.957,3.235,0.366,6.104
-0.264,-0.301,0.955,3.113,0.122,5.859
-0.265,-0.299,0.951,2.686,-0.305,5.493
-0.265,-0.286,0.943,2.319,-0.488,5.066
-0.264,-0.268,0.942,2.319,-0.793,4.700
-0.271,-0.259,0.939,2.380,-1.038,5.066
-0.266,-0.264,0.940,2.625,-1.160,5.737
-0.266,-0.279,0.936,2.563,-1.343,6.470
-0.266,-0.295,0.927,2.502,-1.587,6.897
-0.265,-0.305,0.922,2.441,-1.648,6.897
-0.266,-0.304,0.923,2.197,-1.465,6.470
-0.271,-0.295,0.920,1.526,-1.160,5.859
-0.272,-0.285,0.914,1.892,-1.099,5.493
-0.277,-0.276,0.909,2.319,-0.916,5.737
-0.277,-0.283,0.906,2.441,-0.183,6.348
-0.275,-0.304,0.907,3.174,0.488,6.836
-0.270,-0.321,0.912,3.113,1.221,6.775
-0.263,-0.322,0.926,2.747,1.587,6.165
-0.266,-0.305,0.939,2.014,1.709,5.188
-0.275,-0.284,0.936,1.648,1.343,4.700
-0.279,-0.275,0.927,2.136,0.427,5.005
-0.282,-0.272,0.912,2.625,-0.305,5.249
-0.277,-0.271,0.902,2.869,-0.183,5.310
-0.274,-0.269,0.906,3.174,0.244,5.371
-0.274,-0.277,0.912,3.662,0.977,5.798
-0.267,-0.293,0.912,4.089,1.526,5.981
-0.268,-0.299,0.905,3.967,1.831,5.920
-0.266,-0.297,0.903,3.662,2.136,5.432
-0.264,-0.297,0.907,4.150,2.808,5.066
-0.260,-0.300,0.919,4.089,3.296,4.700
-0.259,-0.304,0.928,3.601,3.479,4.456
-0.256,-0.302,0.936,2.930,3.357,4.150
-0.261,-0.286,0.939,2.441,2.991,3.479
-0.264,-0.272,0.935,2.441,2.686,3.052
-0.266,-0.265,0.931,2.380,2.258,2.930
-0.263,-0.264,0.922,2.747,1.770,3.052
-0.265,-0.251,0.919,2.380,1.648,3.052
-0.266,-0.240,0.914,1.892,1.587,3.296
-0.267,-0.238,0.916,1.953,1.831,4.028
-0.269,-0.248,0.921,2.136,2.014,4.700
-0.270,-0.267,0.924,1.953,2.258,5.310
-0.266,-0.289,0.924,2.258,2.319,5.432
-0.268,-0.294,0.922,2.014,2.319,5.005
-0.269,-0.278,0.914,1.953,2.136,3.967
-0.276,-0.261,0.907,2.258,2.197,3.296
-0.279,-0.257,0.907,2.991,2.869,3.357
-0.274,-0.264,0.915,3.601,3.418,3.784
-0.270,-0.266,0.933,3.906,4.028,3.967
-0.268,-0.266,0.952,3.845,4.211,3.967
-0.271,-0.273,0.958,3.845,3.784,4.272
-0.268,-0.287,0.949,3.662,2.991,4.456
-0.271,-0.290,0.932,3.723,2.075,4.272
-0.276,-0.291,0.917,3.845,1.587,3.540
-0.277,-0.292,0.910,4.395,1.770,3.052
-0.278,-0.286,0.911,4.272,2.380,2.686
-0.274,-0.282,0.916,4.517,2.747,2.319
-0.272,-0.275,0.924,4.944,2.991,2.014
-0.275,-0.270,0.927,4.700,3.418,1.831
-0.277,-0.275,0.919,4.639,3.662,1.953
-0.277,-0.281,0.912,5.127,3.723,2.258
-0.272,-0.279,0.919,5.188,4.150,2.136
-0.273,-0.274,0.936,4.944,4.822,2.014
-0.272,-0.280,0.943,5.310,4.578,2.136
-0.270,-0.291,0.941,4.883,4.028,2.441
-0.272,-0.299,0.933,4.578,3.418,2.380
-0.279,-0.298,0.922,4.456,3.479,1.709
-0.284,-0.290,0.915,4.517,3.601,1.099
-0.281,-0.285,0.915,4.700,4.089,0.793
-0.274,-0.272,0.929,4.822,4.578,0.549
-0.274,-0.272,0.949,4.456,5.310,0.732
-0.276,-0.290,0.955,4.456,5.188,1.404
-0.273,-0.308,0.953,3.906,4.517,1.587
-0.271,-0.318,0.944,3.357,3.784,1.099
-0.268,-0.312,0.938,3.296,3.357,-0.061
-0.267,-0.283,0.944,3.052,3.113,-0.977
-0.272,-0.261,0.950,2.930,3.052,-1.099
-0.278,-0.255,0.942,3.296,2.258,-0.671
-0.278,-0.255,0.922,4.028,1.404,-0.366
-0.283,-0.254,0.905,4.456,1.465,-0.122
-0.286,-0.253,0.892,5.188,2.014,0.305
-0.284,-0.264,0.899,5.798,3.052,0.854
-0.281,-0.279,0.922,5.798,4.456,1.648
-0.280,-0.302,0.937,5.066,5.249,2.197
-0.277,-0.327,0.936,4.333,5.371,1.831
-0.279,-0.329,0.930,3.784,5.127,0.732
-0.276,-0.299,0.923,3.174,5.005,-0.610
-0.285,-0.266,0.934,2.991,5.432,-1.343
-0.293,-0.249,0.944,3.113,5.493,-1.099
-0.294,-0.263,0.938,3.357,5.127,-0.244
-0.289,-0.284,0.934,3.174,5.005,0.427
-0.290,-0.300,0.935,3.052,5.066,0.671
-0.285,-0.304,0.939,3.113,5.188,0.305
-0.296,-0.311,0.946,2.808,5.127,-0.061
-0.301,-0.320,0.940,2.747,4.272,-0.183
-0.297,-0.336,0.923,2.991,3.357,-0.427
-0.303,-0.354,0.910,3.601,2.686,-1.160
-0.305,-0.352,0.898,3.845,2.563,-2.258
-0.309,-0.310,0.899,3.845,2.563,-3.601
-0.321,-0.275,0.907,3.906,2.747,-4.211
-0.330,-0.271,0.907,4.150,2.625,-3.418
-0.334,-0.285,0.896,4.333,2.441,-2.136
-0.340,-0.285,0.885,4.089,2.319,-1.526
-0.345,-0.282,0.867,4.333,2.441,-1.221
-0.355,-0.287,0.861,4.822,3.540,-1.038
-0.357,-0.282,0.866,5.066,4.578,-1.038
-0.360,-0.265,0.873,4.761,5.737,-0.732
-0.367,-0.271,0.874,5.005,6.165,-0.183
-0.366,-0.296,0.879,5.249,6.531,0.488
-0.365,-0.320,0.883,4.700,7.263,0.671
-0.364,-0.334,0.886,4.150,7.996,-0.061
-0.367,-0.320,0.891,4.150,8.423,-1.160
-0.375,-0.294,0.903,4.333,8.728,-1.953
-0.375,-0.284,0.916,3.784,8.972,-1.831
-0.375,-0.292,0.926,3.174,8.728,-1.587
-0.370,-0.298,0.928,3.052,8.301,-1.587
-0.362,-0.307,0.922,2.747,7.751,-1.587
-0.361,-0.317,0.914,2.380,6.775,-1.587
-0.363,-0.313,0.902,2.869,6.042,-2.136
-0.358,-0.297,0.908,3.235,6.287,-2.686
-0.358,-0.289,0.923,3.296,6.653,-2.808
-0.346,-0.298,0.933,3.967,6.775,-2.197
-0.340,-0.319,0.947,4.517,6.653,-2.014
-0.332,-0.339,0.954,4.578,6.226,-2.136
-0.325,-0.351,0.954,3.967,5.249,-2.441
-0.326,-0.348,0.945,3.479,3.967,-3.540
-0.326,-0.334,0.933,3.174,2.991,-4.883
-0.324,-0.306,0.919,2.502,2.014,-5.859
-0.331,-0.267,0.911,1.648,1.343,-6.104
-0.336,-0.234,0.902,1.404,0.916,-5.981
-0.333,-0.228,0.897,1.404,1.099,-5.005
-0.337,-0.234,0.909,1.343,1.648,-3.479
-0.339,-0.245,0.917,1.160,2.014,-2.258
-0.341,-0.267,0.919,1.587,2.136,-1.343
-0.339,-0.293,0.921,1.587,2.136,-0.732
-0.335,-0.314,0.922,1.953,2.136,-0.732
-0.338,-0.325,0.926,1.892,1.892,-0.977
-0.332,-0.323,0.925,1.465,1.770,-1.526
-0.332,-0.310,0.926,0.977,1.526,-2.197
-0.335,-0.293,0.919,0.488,0.977,-2.747
-0.339,-0.271,0.905,0.793,0.488,-3.052
-0.345,-0.255,0.901,0.977,0.244,-2.747
-0.349,-0.255,0.904,0.732,0.671,-1.953
-0.348,-0.262,0.918,0.000,1.282,-1.221
-0.344,-0.264,0.934,-1.343,1.343,-0.671
-0.348,-0.262,0.947,-2.014,0.793,-0.488
-0.349,-0.266,0.949,-2.197,-0.061,-0.061
-0.348,-0.275,0.945,-2.319,-1.160,0.671
-0.347,-0.274,0.932,-2.686,-2.197,0.916
-0.330,-0.292,0.918,-2.869,-2.625,1.587
-0.336,-0.278,0.889,-4.089,-3.723,1.953
-0.337,-0.249,0.874,-5.249,-4.944,1.831
-0.343,-0.237,0.870,-4.700,-4.578,2.625
-0.356,-0.234,0.866,-5.615,-4.395,3.906
-0.370,-0.245,0.868,-5.493,-3.540,5.310
-0.366,-0.270,0.887,-4.333,-2.380,6.897
-0.359,-0.290,0.924,-3.540,-1.160,7.996
-0.375,-0.291,0.955,-2.197,-0.244,8.545
-0.390,-0.285,0.969,-0.244,-0.122,8.667
-0.397,-0.282,0.977,1.343,-0.061,9.460
-0.396,-0.277,0.991,3.113,0.000,10.193
-0.389,-0.279,1.004,4.456,0.244,11.169
-0.370,-0.290,1.017,5.798,0.122,11.902
-0.357,-0.296,1.024,5.676,-0.732,12.146
-0.340,-0.302,1.017,5.554,-1.709,12.573
-0.331,-0.316,1.000,4.211,-2.502,13.245
-0.319,-0.357,0.962,2.441,-3.479,14.099
-0.306,-0.405,0.919,0.122,-4.211,14.099
-0.296,-0.435,0.886,-3.296,-4.211,13.123
-0.296,-0.457,0.880,-5.371,-3.174,11.230
-0.294,-0.458,0.897,-6.409,-1.587,8.423
-0.289,-0.425,0.924,-7.812,0.305,5.432
-0.288,-0.367,0.954,-8.484,1.648,3.418
-0.290,-0.306,0.987,-7.874,2.075,2.502
-0.289,-0.260,1.005,-7.019,1.892,2.869
-0.298,-0.237,1.010,-6.287,0.732,4.700
-0.306,-0.244,1.000,-5.615,-0.977,7.141
-0.302,-0.275,0.979,-4.028,-1.953,9.399
-0.296,-0.303,0.959,-2.808,-2.380,10.071
-0.288,-0.307,0.944,-2.197,-2.441,9.644
-0.281,-0.279,0.940,-1.831,-2.625,8.179
-0.274,-0.258,0.943,-1.221,-2.441,7.080
-0.260,-0.247,0.948,-0.305,-2.197,6.958
-0.241,-0.243,0.960,-0.122,-2.136,6.836
-0.230,-0.256,0.967,0.366,-2.136,7.202
-0.223,-0.278,0.964,0.916,-2.380,7.019
-0.207,-0.294,0.962,1.343,-3.052,6.348
-0.198,-0.290,0.965,1.282,-3.601,5.249
-0.190,-0.279,0.965,0.671,-4.028,4.089
-0.188,-0.272,0.958,1.099,-5.066,3.357
-0.188,-0.254,0.949,1.038,-6.226,2.625
-0.191,-0.246,0.943,1.099,-6.836,2.380
-0.196,-0.249,0.937,0.854,-6.836,2.747
-0.196,-0.266,0.924,0.366,-7.080,2.747
-0.206,-0.290,0.902,0.061,-7.446,2.441
-0.213,-0.306,0.872,0.122,-7.141,1.343
-0.225,-0.302,0.853,-0.122,-6.165,-0.305
-0.236,-0.277,0.852,0.000,-4.456,-2.136
-0.248,-0.248,0.860,0.854,-2.869,-3.723
-0.254,-0.221,0.879,1.587,-1.770,-4.456
-0.264,-0.196,0.910,1.465,-0.427,-4.761
-0.274,-0.191,0.934,1.526,0.305,-4.395
-0.288,-0.199,0.937,1.343,-0.061,-3.906
-0.296,-0.210,0.922,0.854,-0.732,-3.601
-0.304,-0.194,0.904,-0.061,-1.038,-3.967
-0.313,-0.157,0.893,-0.488,-0.793,-4.700
-0.323,-0.128,0.891,0.305,0.244,-4.517
-0.322,-0.127,0.900,1.221,1.587,-3.113
-0.314,-0.141,0.914,1.892,2.563,-1.343
-0.304,-0.168,0.935,2.319,3.601,0.000
-0.299,-0.198,0.951,2.380,4.028,1.038
-0.300,-0.219,0.945,2.319,3.235,1.221
-0.305,-0.225,0.921,2.808,1.831,0.793
-0.312,-0.216,0.890,3.479,0.671,0.122
-0.323,-0.206,0.863,4.089,0.244,-0.305
-0.325,-0.209,0.841,5.005,0.549,-0.549
-0.324,-0.222,0.839,6.042,1.404,-0.610
-0.318,-0.230,0.846,6.897,2.869,-0.977
-0.310,-0.231,0.859,7.202,3.967,-1.465
-0.308,-0.237,0.864,6.958,4.883,-1.648
-0.305,-0.236,0.869,6.409,5.432,-1.831
-0.305,-0.228,0.878,5.859,5.920,-2.258
-0.306,-0.216,0.888,5.127,6.165,-2.319
-0.307,-0.216,0.896,4.578,6.165,-2.014
-0.311,-0.229,0.896,4.211,5.981,-1.587
-0.314,-0.236,0.889,3.784,5.493,-1.709
-0.317,-0.235,0.883,3.479,5.066,-2.136
-0.322,-0.230,0.868,3.540,4.761,-2.625
-0.328,-0.225,0.851,3.540,4.700,-2.930
-0.332,-0.218,0.849,3.479,5.310,-3.113
-0.334,-0.210,0.859,3.052,6.348,-3.601
-0.333,-0.203,0.874,3.235,7.507,-4.089
-0.332,-0.192,0.888,3.662,7.874,-4.700
-0.332,-0.177,0.898,3.723,7.751,-5.127
-0.335,-0.164,0.904,4.089,7.568,-5.432
-0.345,-0.156,0.904,4.761,7.324,-5.737
-0.360,-0.161,0.909,5.493,6.836,-5.798
-0.365,-0.170,0.918,6.042,6.592,-5.981
-0.367,-0.173,0.928,6.775,6.592,-6.409
-0.366,-0.176,0.938,7.141,6.592,-6.836
-0.369,-0.192,0.950,7.141,6.165,-6.714
-0.374,-0.211,0.952,7.385,5.615,-6.958
-0.355,-0.194,0.959,9.521,5.676,-9.338
-0.389,-0.154,1.002,15.930,6.531,-13.184
-0.392,-0.161,0.987,12.939,4.272,-10.437
-0.372,-0.180,0.974,4.456,1.465,-6.104
-0.396,-0.170,0.969,3.296,1.099,-5.188
-0.399,-0.176,0.965,7.996,1.648,-6.226
-0.396,-0.194,0.971,10.376,2.319,-6.592
-0.391,-0.230,0.997,9.399,2.869,-5.371
-0.383,-0.267,1.022,8.057,2.991,-4.639
-0.379,-0.287,1.046,6.958,2.686,-5.615
-0.384,-0.297,1.062,6.531,1.465,-7.507
-0.392,-0.299,1.055,6.226,-0.366,-9.949
-0.400,-0.280,1.036,5.432,-2.136,-12.146
-0.393,-0.260,1.018,4.517,-3.174,-13.794
-0.398,-0.217,0.997,3.052,-4.150,-14.893
-0.415,-0.160,0.974,2.014,-5.005,-15.991
-0.425,-0.138,0.938,3.540,-5.005,-15.259
-0.430,-0.117,0.912,3.601,-4.211,-13.367
-0.428,-0.093,0.912,3.784,-2.441,-11.475
-0.432,-0.094,0.906,5.310,-0.122,-8.545
-0.417,-0.114,0.907,8.118,2.991,-5.249
-0.383,-0.152,0.924,9.949,7.141,-2.258
-0.357,-0.185,0.953,11.841,12.024,-0.305
-0.319,-0.215,0.988,13.855,16.418,1.343
-0.272,-0.249,1.050,15.259,20.569,2.808
-0.240,-0.302,1.139,16.113,23.804,3.662
-0.196,-0.359,1.229,14.282,25.269,3.235
-0.185,-0.405,1.296,9.644,23.865,1.160
-0.200,-0.399,1.287,1.648,16.968,-1.587
-0.216,-0.356,1.190,-7.019,5.920,-4.211
-0.230,-0.309,1.061,-11.108,-2.625,-6.958
-0.265,-0.251,0.948,-11.658,-7.690,-10.376
-0.300,-0.188,0.841,-9.827,-10.376,-13.245
-0.326,-0.140,0.773,-6.653,-10.681,-14.709
-0.331,-0.127,0.755,-2.197,-7.263,-13.977
-0.315,-0.151,0.779,1.404,-2.197,-11.353
-0.301,-0.186,0.823,2.441,2.014,-8.118
-0.277,-0.214,0.864,1.160,4.456,-4.822
-0.232,-0.293,0.906,0.000,4.944,-1.587
-0.194,-0.352,0.955,1.221,5.493,-1.099
-0.180,-0.363,0.987,3.174,4.944,-3.540
-0.164,-0.346,0.988,2.197,2.380,-5.920
-0.159,-0.311,0.984,-1.038,-1.526,-7.446
-0.154,-0.258,0.937,-3.418,-5.798,-7.507
-0.154,-0.231,0.877,-4.578,-9.705,-6.897
-0.180,-0.223,0.819,-4.517,-11.719,-6.165
-0.200,-0.211,0.768,-4.028,-11.902,-5.737
-0.213,-0.210,0.734,-3.845,-10.620,-4.883
-0.228,-0.223,0.710,-2.991,-7.690,-3.479
-0.245,-0.243,0.699,-1.465,-4.028,-2.319
-0.254,-0.241,0.697,0.671,-0.244,-1.953
-0.262,-0.227,0.711,3.052,3.784,-2.075
-0.276,-0.209,0.740,5.554,7.935,-2.014
-0.287,-0.187,0.774,7.202,11.230,-1.709
-0.288,-0.175,0.808,8.423,13.611,-0.916
-0.287,-0.183,0.842,9.766,14.893,0.061
-0.295,-0.207,0.870,10.864,15.686,0.977
-0.302,-0.223,0.887,11.047,15.991,1.526
-0.302,-0.244,0.905,9.888,16.113,2.014
-0.312,-0.243,0.916,8.484,16.113,2.258
-0.319,-0.231,0.912,7.507,16.113,2.319
-0.326,-0.233,0.928,6.592,16.052,2.625
-0.327,-0.237,0.951,6.042,16.174,3.052
-0.326,-0.252,0.972,5.859,16.052,3.418
-0.328,-0.271,0.978,5.493,14.771,3.662
-0.332,-0.281,0.967,4.883,12.878,3.540
-0.336,-0.268,0.949,4.089,10.681,2.686
-0.335,-0.250,0.931,3.479,9.155,1.892
-0.337,-0.230,0.917,3.296,8.240,1.526
-0.337,-0.225,0.910,3.723,8.057,1.526
-0.333,-0.226,0.904,4.639,7.751,2.441
-0.328,-0.237,0.891,5.371,7.568,3.357
-0.313,-0.244,0.891,3.479,7.690,4.333
-0.318,-0.246,0.906,2.136,8.545,5.066
-0.310,-0.243,0.918,2.869,9.583,5.554
-0.303,-0.252,0.933,3.723,10.437,5.798
-0.296,-0.272,0.960,3.662,10.559,6.226
-0.288,-0.294,0.986,3.174,10.010,6.104
-0.295,-0.300,0.995,3.113,8.972,5.615
-0.298,-0.290,0.984,1.831,7.324,5.066
-0.307,-0.275,0.965,0.488,5.127,4.395
-0.328,-0.270,0.937,0.000,2.930,4.028
-0.345,-0.257,0.898,-0.122,1.587,4.150
-0.356,-0.243,0.865,-0.122,1.526,4.517
-0.361,-0.229,0.857,0.244,2.686,4.761
-0.367,-0.224,0.872,0.854,4.395,5.249
-0.367,-0.233,0.891,1.831,5.798,6.470
-0.361,-0.249,0.909,2.319,7.202,7.690
-0.351,-0.265,0.926,1.953,7.263,8.362
-0.345,-0.277,0.941,1.343,7.019,8.484
-0.342,-0.272,0.954,0.916,6.409,8.484
-0.345,-0.263,0.959,1.831,5.798,8.240
-0.342,-0.260,0.968,2.625,4.761,7.996
-0.337,-0.269,0.983,2.014,3.357,8.423
-0.338,-0.274,0.986,0.854,1.343,8.972
-0.343,-0.265,0.965,0.000,-0.916,9.216
-0.348,-0.247,0.928,-0.244,-2.441,9.338
-0.351,-0.238,0.902,0.549,-3.174,9.644
-0.361,-0.250,0.892,1.709,-3.174,10.498
-0.349,-0.270,0.881,2.014,-2.441,11.353
-0.365,-0.274,0.889,0.977,-2.075,12.085
-0.354,-0.281,0.896,0.916,-1.587,11.963
-0.347,-0.289,0.913,1.465,-0.977,11.597
-0.345,-0.283,0.927,1.160,-0.610,11.169
-0.344,-0.279,0.944,0.610,-0.488,10.986
-0.339,-0.281,0.966,0.549,-0.854,10.864
-0.335,-0.283,0.976,-0.122,-1.831,11.047
-0.345,-0.276,0.972,-1.160,-2.502,11.108
-0.363,-0.274,0.957,-1.099,-3.662,11.353
-0.383,-0.283,0.940,-0.305,-4.456,11.353
-0.390,-0.277,0.939,0.061,-4.517,11.108
-0.400,-0.258,0.957,0.549,-3.662,10.986
-0.416,-0.236,0.975,1.892,-2.991,10.620
-0.417,-0.208,0.988,1.282,-2.625,11.047
-0.414,-0.176,1.001,0.610,-2.563,12.146
-0.413,-0.140,1.002,0.854,-2.258,13.245
-0.405,-0.120,1.007,1.465,-2.197,15.259
-0.396,-0.127,1.005,2.686,-2.136,17.761
-0.385,-0.152,0.989,4.517,-2.136,20.081
-0.347,-0.193,0.976,4.700,-1.404,22.522
-0.306,-0.245,0.998,3.235,1.343,24.719
-0.267,-0.293,1.037,1.343,4.456,25.757
-0.217,-0.334,1.091,-0.488,6.714,26.184
-0.177,-0.351,1.154,-1.892,7.507,25.757
-0.172,-0.360,1.201,-3.906,6.531,25.269
-0.175,-0.370,1.212,-5.127,3.418,24.658
-0.180,-0.373,1.188,-5.859,-1.099,23.743
-0.187,-0.355,1.131,-6.165,-5.249,22.095
-0.205,-0.322,1.054,-5.188,-9.644,19.775
-0.224,-0.285,0.988,-3.174,-12.878,17.273
-0.235,-0.245,0.938,-0.610,-14.465,15.259
-0.234,-0.219,0.907,2.136,-14.160,14.038
-0.231,-0.207,0.890,4.700,-12.939,13.428
-0.239,-0.207,0.878,6.836,-12.085,13.062
-0.241,-0.227,0.862,8.179,-10.681,13.306
-0.237,-0.260,0.857,8.423,-9.155,13.977
-0.229,-0.293,0.858,6.042,-7.446,14.282
-0.221,-0.304,0.860,1.587,-6.531,14.160
-0.210,-0.312,0.873,-2.441,-5.920,13.550
-0.203,-0.319,0.895,-5.920,-4.883,12.817
-0.205,-0.283,0.919,-6.470,-4.028,9.766
-0.208,-0.275,0.928,-5.249,-3.601,7.629
-0.211,-0.263,0.929,-7.751,-3.906,7.080
-0.227,-0.245,0.915,-10.376,-4.639,6.775
-0.238,-0.233,0.891,-11.719,-5.249,6.470
-0.250,-0.221,0.862,-11.963,-5.066,5.737
-0.269,-0.202,0.838,-11.169,-4.272,5.066
-0.290,-0.182,0.829,-9.644,-2.930,4.822
-0.296,-0.172,0.827,-8.850,-1.709,5.432
-0.292,-0.178,0.844,-8.728,0.122,6.531
-0.287,-0.192,0.865,-7.263,2.441,7.019
-0.282,-0.212,0.880,-4.272,3.906,6.653
-0.288,-0.220,0.895,-2.380,4.517,5.676
-0.292,-0.219,0.907,-1.770,5.005,4.944
-0.293,-0.223,0.922,-0.122,5.249,4.089
-0.291,-0.235,0.937,1.160,5.371,3.113
-0.291,-0.242,0.950,1.343,5.005,2.380
-0.295,-0.237,0.949,1.831,3.906,1.587
-0.297,-0.213,0.939,2.319,2.563,0.610
-0.304,-0.172,0.930,2.747,1.404,-0.122
-0.317,-0.150,0.919,3.723,0.305,-0.061
-0.325,-0.157,0.905,5.066,-0.610,0.793
-0.331,-0.174,0.892,6.042,-1.221,1.953
-0.335,-0.200,0.866,6.348,-1.526,2.930
-0.332,-0.209,0.852,3.845,-1.221,3.723
-0.334,-0.216,0.853,2.136,0.122,4.211
-0.327,-0.231,0.868,2.502,1.587,3.906
-0.311,-0.225,0.887,2.747,2.991,3.235
-0.313,-0.224,0.926,2.441,4.028,2.747
-0.300,-0.237,0.933,3.296,3.845,2.441
-0.306,-0.249,0.932,3.784,2.747,1.831
-0.309,-0.243,0.916,3.601,1.709,0.488
-0.321,-0.229,0.890,4.028,0.610,-0.732
-0.332,-0.200,0.877,4.333,0.549,-1.709
-0.346,-0.154,0.861,4.822,0.793,-2.808
-0.354,-0.138,0.855,5.676,1.465,-2.747
-0.357,-0.134,0.859,6.531,2.869,-1.709
-0.364,-0.131,0.881,6.836,4.700,-1.099
-0.365,-0.141,0.905,7.629,5.981,-0.427
-0.363,-0.166,0.923,7.996,6.531,0.183
-0.363,-0.186,0.937,7.690,6.592,0.366
-0.360,-0.188,0.943,7.385,6.104,-0.366
-0.366,-0.194,0.956,6.592,5.432,-0.732
-0.369,-0.188,0.965,5.737,4.639,-1.221
-0.376,-0.182,0.964,5.920,3.296,-2.075
-0.380,-0.180,0.958,6.042,1.953,-2.502
-0.387,-0.172,0.950,5.554,0.732,-3.174
-0.397,-0.157,0.936,5.188,-0.061,-3.540
-0.407,-0.152,0.924,5.920,-0.793,-3.540
-0.410,-0.154,0.916,6.226,-0.671,-3.296
-0.412,-0.156,0.923,6.165,0.183,-3.357
-0.408,-0.161,0.941,6.653,0.916,-2.991
-0.398,-0.167,0.961,6.714,1.282,-3.174
-0.394,-0.165,0.981,6.531,1.099,-3.174
-0.387,-0.166,0.990,6.958,0.793,-3.113
-0.388,-0.182,0.995,7.629,0.183,-2.869
-0.387,-0.211,0.990,8.301,-0.671,-2.563
-0.388,-0.246,0.987,8.362,-1.709,-2.441
-0.388,-0.273,0.982,7.812,-2.136,-3.296
-0.389,-0.273,0.984,6.409,-2.502,-4.883
-0.401,-0.264,0.973,5.432,-2.869,-6.958
-0.425,-0.254,0.954,5.493,-3.784,-9.033
-0.443,-0.233,0.934,4.883,-4.272,-10.742
-0.455,-0.194,0.931,3.418,-3.784,-11.902
-0.468,-0.163,0.941,2.258,-2.686,-12.634
-0.459,-0.160,0.957,2.869,-1.953,-12.451
-0.470,-0.142,0.962,2.808,-1.709,-11.719
-0.478,-0.129,0.961,2.319,-1.953,-10.864
-0.475,-0.118,0.945,3.418,-1.953,-9.705
-0.476,-0.098,0.934,3.174,-1.465,-8.301
-0.474,-0.089,0.926,3.723,0.000,-6.042
-0.456,-0.104,0.928,6.348,2.197,-3.540
-0.427,-0.149,0.923,10.559,4.639,-1.160
-0.407,-0.178,0.922,13.367,7.263,0.549
-0.375,-0.212,0.954,12.634,10.925,2.319
-0.334,-0.271,1.007,12.695,14.893,4.272
-0.282,-0.317,1.064,12.634,17.578,4.700
-0.236,-0.345,1.117,10.925,18.188,3.540
-0.219,-0.359,1.151,8.057,16.724,1.404
-0.212,-0.356,1.152,4.700,12.695,-0.793
-0.231,-0.343,1.119,0.366,7.507,-2.930
-0.240,-0.331,1.058,-2.930,2.136,-4.639
-0.265,-0.304,0.986,-5.310,-2.380,-6.836
-0.293,-0.239,0.902,-5.676,-5.249,-10.315
-0.312,-0.188,0.842,-3.052,-6.592,-13.123
-0.328,-0.177,0.805,0.854,-5.798,-13.428
-0.333,-0.177,0.799,3.357,-3.052,-12.512
-0.324,-0.180,0.816,4.272,-0.244,-11.108
-0.300,-0.174,0.854,3.540,2.197,-8.789
-0.277,-0.204,0.910,0.549,3.540,-5.554
-0.234,-0.229,0.960,-1.526,3.723,-3.418
-0.219,-0.250,0.997,2.319,3.418,-4.028
-0.196,-0.276,0.997,3.845,1.160,-3.967
-0.190,-0.273,0.983,1.892,-1.953,-4.211
-0.190,-0.266,0.950,0.000,-5.432,-3.723
-0.189,-0.250,0.907,-0.488,-8.423,-3.357
-0.206,-0.233,0.862,-0.122,-9.949,-3.113
-0.224,-0.223,0.812,0.732,-10.681,-2.502
-0.240,-0.227,0.762,1.709,-10.315,-1.282
-0.253,-0.243,0.720,1.892,-8.484,-0.244
-0.265,-0.261,0.696,2.258,-5.188,0.427
-0.279,-0.277,0.694,3.296,-1.587,0.854
-0.286,-0.282,0.712,4.639,2.747,0.305
-0.292,-0.263,0.748,6.226,7.507,-0.610
-0.298,-0.232,0.792,7.324,11.047,-1.160
-0.296,-0.205,0.841,7.629,12.878,-0.854
-0.295,-0.190,0.888,7.996,13.855,-0.366
-0.309,-0.185,0.915,8.362,13.794,0.427
-0.323,-0.195,0.914,8.667,12.390,1.343
-0.334,-0.221,0.900,8.911,11.169,2.258
-0.348,-0.249,0.885,8.240,10.620,3.052
-0.349,-0.268,0.886,6.531,10.986,3.052
-0.350,-0.269,0.902,5.188,11.963,2.319
-0.347,-0.241,0.923,3.906,12.512,1.038
-0.346,-0.213,0.940,2.869,12.207,0.427
-0.351,-0.204,0.941,2.441,11.169,0.671
-0.353,-0.207,0.925,2.380,9.888,1.648
-0.364,-0.216,0.906,1.343,8.423,2.747
-0.362,-0.234,0.889,0.793,7.874,3.601
-0.355,-0.256,0.884,0.732,7.751,3.967
-0.349,-0.272,0.888,0.183,8.362,3.967
-0.346,-0.281,0.896,-0.366,8.484,3.479
-0.341,-0.281,0.902,-0.488,8.423,2.747
-0.339,-0.259,0.911,-0.732,8.667,2.014
-0.340,-0.237,0.918,-1.343,8.728,1.892
-0.341,-0.225,0.923,-1.526,8.606,2.563
-0.338,-0.218,0.922,-1.160,8.362,3.418
-0.334,-0.219,0.924,-0.854,8.423,4.395
-0.333,-0.227,0.937,0.000,8.545,5.371
-0.336,-0.240,0.964,0.916,8.667,6.165
-0.336,-0.261,0.982,1.282,8.728,6.653
-0.341,-0.281,0.983,0.671,7.751,6.714
-0.344,-0.286,0.970,0.000,5.859,6.531
-0.352,-0.271,0.954,-0.427,4.333,5.737
-0.360,-0.240,0.933,-0.427,3.174,4.883
-0.369,-0.215,0.917,-0.305,2.625,4.395
-0.379,-0.204,0.906,-0.244,2.136,4.822
-0.382,-0.207,0.899,-0.244,2.014,5.676
-0.389,-0.212,0.896,-0.610,2.197,6.165
-0.393,-0.223,0.895,-0.732,2.197,6.958
-0.390,-0.236,0.892,-0.977,2.258,7.263
-0.389,-0.241,0.895,-1.038,2.563,7.202
-0.382,-0.235,0.903,-0.916,2.686,6.836
-0.379,-0.215,0.920,-1.038,2.869,6.653
-0.378,-0.205,0.940,-1.099,2.808,6.958
-0.371,-0.211,0.956,-1.221,2.075,7.874
-0.364,-0.224,0.960,-1.526,0.549,8.911
-0.368,-0.235,0.952,-1.770,-1.343,9.277
-0.374,-0.239,0.934,-1.648,-2.808,9.460
-0.381,-0.222,0.904,-1.770,-4.150,9.399
-0.388,-0.200,0.875,-1.648,-4.883,9.644
-0.390,-0.194,0.864,-1.160,-4.883,10.498
-0.389,-0.194,0.878,-0.610,-3.906,11.719
-0.382,-0.201,0.900,-0.366,-2.563,12.939
-0.381,-0.218,0.920,0.122,-2.075,13.977
-0.380,-0.234,0.936,0.549,-2.075,14.832
-0.378,-0.248,0.949,0.793,-2.197,15.259
-0.383,-0.255,0.958,1.038,-2.441,15.259
-0.386,-0.245,0.952,1.038,-3.235,14.771
-0.394,-0.212,0.941,0.732,-4.517,14.587
-0.401,-0.191,0.921,1.343,-5.676,15.137
-0.405,-0.191,0.904,2.075,-5.737,16.541
-0.409,-0.204,0.897,2.441,-5.432,18.005
-0.396,-0.240,0.892,2.869,-4.639,19.409
-0.410,-0.244,0.898,2.014,-3.784,19.775
-0.403,-0.250,0.918,1.648,-2.747,19.470
-0.401,-0.264,0.944,2.075,-1.709,19.165
-0.409,-0.268,0.926,1.709,-1.343,18.738
-0.407,-0.257,0.895,-0.183,-1.221,18.738
-0.404,-0.242,0.863,-1.160,-0.427,18.921
-0.392,-0.223,0.848,0.183,2.014,18.738
-0.377,-0.187,0.876,1.709,6.104,18.738
-0.349,-0.187,0.929,2.563,10.315,20.386
-0.313,-0.212,0.992,1.099,13.794,22.949
-0.288,-0.240,1.055,-0.916,15.625,24.963
-0.264,-0.278,1.101,-2.197,15.991,25.879
-0.248,-0.302,1.124,-3.235,14.587,25.818
-0.234,-0.295,1.121,-5.188,11.536,24.841
-0.234,-0.262,1.115,-7.446,7.935,23.560
-0.229,-0.230,1.104,-7.141,4.639,22.583
-0.229,-0.197,1.083,-5.737,1.587,21.851
-0.230,-0.168,1.063,-4.944,-1.221,21.606
-0.223,-0.155,1.056,-3.357,-3.052,21.606
-0.211,-0.169,1.038,-1.099,-4.883,22.156
-0.210,-0.198,1.006,1.038,-7.141,22.583
-0.218,-0.223,0.972,2.747,-8.789,21.973
-0.228,-0.241,0.939,4.578,-9.033,20.996
-0.241,-0.258,0.920,5.920,-8.118,19.775
-0.250,-0.273,0.922,6.226,-6.348,18.433
-0.254,-0.295,0.927,5.493,-4.700,17.761
-0.258,-0.303,0.943,2.319,-3.418,16.907
-0.252,-0.321,0.960,-1.282,-2.808,16.296
-0.250,-0.315,0.975,-4.028,-2.625,14.404
-0.257,-0.269,0.983,-2.869,-2.563,10.437
-0.267,-0.248,0.964,-2.747,-3.174,8.484
-0.280,-0.200,0.940,-6.042,-4.456,8.118
-0.291,-0.163,0.910,-8.179,-5.371,8.545
-0.299,-0.154,0.882,-7.935,-5.493,9.644
-0.303,-0.163,0.868,-6.287,-4.944,10.620
-0.297,-0.176,0.866,-5.920,-3.601,11.536
-0.295,-0.198,0.876,-5.554,-2.319,12.451
-0.284,-0.212,0.886,-5.737,-1.648,12.695
-0.285,-0.215,0.891,-5.310,-1.282,12.268
-0.287,-0.211,0.879,-3.479,-1.404,11.719
-0.291,-0.202,0.862,-1.831,-1.526,11.047
-0.290,-0.190,0.851,-0.183,-1.099,10.376
-0.289,-0.183,0.853,1.404,-0.122,10.193
-0.286,-0.199,0.868,3.113,1.038,10.254
-0.278,-0.226,0.886,4.150,2.014,10.620
-0.276,-0.236,0.905,3.723,2.563,10.254
-0.274,-0.235,0.911,2.747,2.563,9.460
-0.276,-0.234,0.911,2.502,2.258,8.789
-0.282,-0.232,0.902,2.014,1.709,8.057
-0.291,-0.233,0.880,1.648,1.099,7.507
-0.298,-0.234,0.860,1.526,1.160,7.019
-0.305,-0.229,0.841,1.282,1.648,6.226
-0.312,-0.227,0.831,1.160,2.808,5.676
-0.311,-0.227,0.831,0.671,4.456,5.371
-0.303,-0.206,0.846,-0.122,6.287,4.517
-0.306,-0.186,0.877,-0.427,7.935,4.272
-0.316,-0.181,0.895,0.366,9.155,4.333
-0.316,-0.188,0.896,1.343,9.216,4.822
-0.318,-0.196,0.913,0.854,9.277,5.188
-0.310,-0.208,0.926,0.061,9.338,5.005
-0.312,-0.208,0.944,-0.305,9.338,4.395
-0.316,-0.201,0.953,-0.427,8.667,3.296
-0.328,-0.191,0.947,-0.977,7.324,2.319
-0.340,-0.183,0.929,-1.099,5.981,1.953
-0.344,-0.177,0.914,-1.465,5.249,1.709
-0.351,-0.162,0.908,-1.343,5.310,1.282
-0.359,-0.150,0.911,-0.183,5.676,0.793
-0.370,-0.144,0.903,1.770,5.615,0.732
-0.376,-0.140,0.898,2.930,5.676,1.038
-0.382,-0.131,0.904,3.479,6.042,1.404
-0.390,-0.139,0.917,4.150,6.592,2.075
-0.388,-0.167,0.930,5.127,7.080,3.052
-0.385,-0.195,0.948,5.798,7.202,3.540
-0.385,-0.207,0.960,5.005,6.775,3.174
-0.389,-0.209,0.963,5.066,5.554,2.380
-0.393,-0.195,0.953,4.944,4.395,1.282
-0.401,-0.175,0.942,4.333,3.418,0.366
-0.405,-0.167,0.921,4.211,2.563,0.427
-0.403,-0.175,0.907,4.517,2.319,1.099
-0.404,-0.189,0.904,4.272,2.686,1.404
-0.406,-0.206,0.913,4.517,3.479,1.526
-0.396,-0.228,0.929,5.127,4.395,1.221
-0.387,-0.231,0.958,5.188,4.883,0.427
-0.383,-0.222,0.986,4.700,5.005,-0.366
-0.380,-0.224,1.000,5.188,4.272,-0.977
-0.380,-0.238,0.998,6.470,2.747,-1.587
-0.390,-0.254,0.986,7.202,0.916,-2.258
-0.396,-0.272,0.968,6.531,-0.610,-3.113
-0.400,-0.288,0.961,5.554,-1.465,-4.272
-0.410,-0.295,0.965,4.333,-1.892,-5.676
-0.397,-0.288,0.958,3.601,-2.014,-7.690
-0.419,-0.247,0.951,2.319,-2.380,-10.071
-0.427,-0.202,0.928,2.014,-2.686,-11.841
-0.441,-0.169,0.916,2.380,-2.625,-12.451
-0.457,-0.140,0.915,2.441,-2.197,-12.207
-0.472,-0.132,0.923,3.357,-1.160,-11.108
-0.473,-0.151,0.946,5.676,0.977,-9.521
-0.471,-0.175,0.977,8.118,3.357,-8.057
-0.456,-0.205,1.012,10.681,5.737,-6.775
-0.420,-0.210,1.051,12.207,7.446,-6.042
-0.425,-0.203,1.066,13.428,7.996,-6.042
-0.395,-0.162,1.043,14.404,7.629,-5.981
-0.374,-0.127,1.035,14.160,7.385,-4.700
-0.356,-0.125,1.031,14.038,7.874,-2.869
-0.307,-0.141,1.018,13.489,8.850,-0.854
-0.261,-0.179,1.021,11.536,9.705,1.099
-0.236,-0.244,1.028,9.460,10.620,2.930
-0.215,-0.340,1.042,8.667,11.414,3.296
-0.203,-0.435,1.064,7.446,12.146,2.258
-0.213,-0.458,1.082,3.540,12.024,-1.038
-0.233,-0.428,1.083,-0.122,10.254,-5.859
-0.256,-0.355,1.060,-1.648,7.019,-11.475
-0.282,-0.275,1.015,-2.258,3.235,-15.564
-0.307,-0.206,0.958,-2.258,-0.305,-17.334
-0.331,-0.148,0.909,-1.038,-2.136,-17.822
-0.349,-0.111,0.882,1.282,-2.380,-17.395
-0.345,-0.106,0.884,3.235,-2.075,-14.893
-0.323,-0.145,0.911,2.319,-1.587,-10.864
-0.289,-0.202,0.939,-0.549,-1.648,-6.897
-0.256,-0.237,0.951,0.488,-1.953,-6.104
-0.233,-0.261,0.951,2.930,-2.747,-7.141
-0.222,-0.267,0.937,2.502,-4.517,-7.690
-0.217,-0.263,0.915,0.427,-6.653,-7.629
-0.207,-0.262,0.884,-0.061,-8.484,-7.080
-0.200,-0.262,0.848,-0.671,-9.827,-6.470
-0.197,-0.258,0.812,-1.160,-10.132,-6.165
-0.194,-0.251,0.780,-0.854,-9.155,-5.676
-0.202,-0.251,0.754,-0.793,-7.446,-4.761
-0.207,-0.266,0.736,-0.122,-4.822,-3.662
-0.211,-0.285,0.734,0.549,-1.648,-3.174
-0.222,-0.295,0.746,1.282,1.770,-2.991
-0.228,-0.305,0.771,2.502,5.493,-3.540
-0.238,-0.302,0.808,3.723,8.667,-4.395
-0.256,-0.266,0.835,4.272,10.437,-5.798
-0.272,-0.210,0.843,5.066,10.681,-7.263
-0.294,-0.164,0.836,6.531,10.498,-7.324
-0.319,-0.147,0.821,7.629,10.559,-6.042
-0.330,-0.157,0.809,8.118,11.658,-4.333
-0.330,-0.171,0.821,8.484,13.245,-2.625
-0.333,-0.188,0.859,8.545,15.869,-1.831
-0.328,-0.214,0.905,8.972,17.761,-1.343
-0.320,-0.226,0.945,8.728,18.433,-1.465
-0.319,-0.233,0.970,7.935,17.517,-1.526
-0.320,-0.236,0.981,6.531,15.869,-1.709
-0.324,-0.239,0.979,4.822,13.855,-1.831
-0.327,-0.235,0.963,3.235,11.780,-2.014
-0.334,-0.223,0.944,1.953,9.399,-2.075
-0.343,-0.216,0.918,1.526,7.751,-1.953
-0.346,-0.222,0.901,1.831,7.080,-1.404
-0.341,-0.237,0.891,2.197,7.202,-0.793
-0.336,-0.244,0.895,2.136,7.507,-0.610
-0.332,-0.254,0.899,2.441,7.935,-0.366
-0.330,-0.266,0.903,3.052,8.240,-0.427
-0.333,-0.269,0.898,2.869,8.362,-0.671
-0.335,-0.260,0.888,3.235,8.057,-0.793
-0.337,-0.251,0.888,3.418,8.301,-0.549
-0.333,-0.258,0.896,3.906,9.155,-0.244
-0.333,-0.272,0.907,4.150,9.460,-0.061
-0.334,-0.279,0.914,4.456,9.949,-0.244
-0.333,-0.272,0.930,4.578,10.010,-0.488
-0.336,-0.266,0.947,3.967,9.827,-0.671
-0.344,-0.266,0.955,3.662,9.094,-0.732
-0.356,-0.275,0.942,3.235,7.935,-0.977
-0.357,-0.265,0.923,2.380,6.592,-1.282
-0.367,-0.255,0.911,1.221,6.104,-1.526
-0.377,-0.247,0.901,1.099,5.981,-2.014
-0.388,-0.237,0.895,0.488,6.165,-2.380
-0.389,-0.233,0.886,-0.183,6.226,-2.136
-0.380,-0.217,0.888,-0.488,6.653,-1.953
-0.384,-0.205,0.906,-0.488,7.324,-1.648
-0.387,-0.208,0.922,0.305,7.507,-1.160
-0.389,-0.216,0.923,1.465,7.080,-0.732
-0.382,-0.224,0.916,1.404,6.226,-0.488
-0.375,-0.223,0.915,0.854,5.493,-0.366
-0.377,-0.221,0.921,0.916,5.554,-0.183
-0.383,-0.216,0.924,1.343,5.066,-0.061
-0.381,-0.213,0.926,1.221,4.456,0.183
-0.384,-0.220,0.926,0.549,3.906,0.793
-0.384,-0.224,0.927,0.305,3.296,1.221
-0.378,-0.233,0.928,0.671,3.113,1.343
-0.375,-0.226,0.940,1.099,3.174,1.221
-0.368,-0.205,0.955,1.343,2.563,1.160
-0.361,-0.183,0.975,0.793,2.136,1.648
-0.357,-0.174,0.995,0.427,1.343,2.625
-0.354,-0.169,0.999,0.366,0.061,3.906
-0.357,-0.168,0.987,0.732,-1.587,4.761
-0.363,-0.179,0.971,1.099,-2.502,5.981
-0.354,-0.192,0.952,1.404,-3.235,6.836
-0.352,-0.191,0.957,0.793,-3.357,7.629
-0.350,-0.185,0.968,0.122,-3.296,8.179
-0.341,-0.194,0.980,1.282,-2.991,8.789
-0.349,-0.189,0.971,1.465,-3.540,9.338
-0.364,-0.178,0.956,0.000,-4.517,9.644
-0.373,-0.177,0.934,0.183,-4.639,9.949
-0.383,-0.159,0.922,0.000,-4.211,10.742
-0.389,-0.140,0.930,-0.488,-2.808,11.536
-0.387,-0.126,0.956,-0.549,-1.343,13.000
-0.382,-0.126,0.973,-0.732,0.488,15.137
-0.373,-0.128,0.996,0.244,2.197,17.029
-0.360,-0.138,1.016,1.770,3.967,18.555
-0.352,-0.155,1.034,3.235,5.493,19.836
-0.345,-0.170,1.044,3.662,6.348,20.752
-0.326,-0.193,1.053,2.869,6.958,21.973
-0.303,-0.226,1.068,1.038,7.446,22.766
-0.284,-0.262,1.078,-1.648,7.141,22.949
-0.275,-0.271,1.082,-4.822,5.981,22.217
-0.266,-0.272,1.077,-7.507,4.272,21.362
-0.270,-0.280,1.060,-8.606,2.319,20.630
-0.262,-0.249,1.040,-10.010,0.305,19.409
-0.265,-0.197,1.025,-11.169,-1.404,18.494
-0.266,-0.158,1.002,-10.681,-2.197,18.433
-0.263,-0.139,0.975,-8.789,-3.235,19.531
-0.263,-0.140,0.954,-7.019,-3.845,20.874
-0.260,-0.158,0.947,-4.639,-3.479,22.339
-0.248,-0.183,0.955,-2.319,-2.930,23.499
-0.238,-0.199,0.962,-0.610,-2.502,23.987
-0.225,-0.199,0.974,0.549,-2.747,24.353
-0.223,-0.206,0.991,1.526,-3.540,24.963
-0.217,-0.238,0.990,1.892,-4.822,25.208
-0.212,-0.274,0.971,2.319,-5.981,24.658
-0.211,-0.307,0.935,1.953,-7.812,23.437
-0.222,-0.301,0.920,0.671,-9.399,21.240
-0.207,-0.320,0.885,0.671,-10.010,18.494
-0.222,-0.316,0.862,-0.183,-10.254,15.747
-0.230,-0.274,0.864,-4.272,-9.216,12.573
-0.240,-0.232,0.856,-5.432,-7.812,10.376
-0.253,-0.188,0.845,-4.883,-6.531,8.728
-0.266,-0.156,0.845,-4.578,-4.944,7.812
-0.276,-0.143,0.848,-4.089,-2.930,8.057
-0.284,-0.135,0.856,-3.662,-1.160,8.667
-0.287,-0.126,0.879,-3.052,1.099,9.338
-0.286,-0.135,0.905,-2.197,2.869,10.132
-0.283,-0.150,0.936,-0.977,4.333,10.864
-0.285,-0.175,0.959,-0.183,4.883,11.169
-0.290,-0.197,0.974,-0.488,4.761,11.353
-0.289,-0.210,0.981,-1.038,3.906,10.620
-0.295,-0.218,0.978,-1.282,3.052,9.766
-0.301,-0.216,0.969,-0.732,1.831,8.545
-0.311,-0.203,0.957,0.366,0.793,6.836
-0.317,-0.187,0.946,1.465,0.305,5.920
-0.322,-0.175,0.937,2.502,-0.305,5.066
-0.322,-0.166,0.928,3.296,-0.977,4.822
-0.325,-0.163,0.921,4.089,-1.282,4.944
-0.328,-0.170,0.906,4.578,-1.709,5.554
-0.329,-0.194,0.882,5.493,-2.075,5.798
-0.325,-0.206,0.865,6.042,-2.075,5.615
-0.324,-0.207,0.859,5.493,-1.648,5.188
-0.316,-0.207,0.859,5.188,-0.916,4.761
-0.300,-0.212,0.857,4.456,-0.244,4.456
-0.290,-0.207,0.858,4.028,0.305,4.089
-0.286,-0.208,0.862,4.456,0.916,3.540
-0.282,-0.214,0.864,4.700,1.648,3.113
-0.281,-0.229,0.867,4.089,2.258,2.686
-0.283,-0.241,0.866,3.540,2.869,2.014
-0.282,-0.242,0.865,2.808,3.479,1.099
-0.288,-0.236,0.868,1.831,4.028,0.122
-0.298,-0.219,0.866,1.404,4.822,-0.916
-0.312,-0.194,0.856,1.404,5.249,-1.892
-0.326,-0.175,0.852,1.709,5.798,-2.563
-0.331,-0.159,0.872,2.136,6.897,-3.052
-0.338,-0.152,0.879,2.686,7.935,-3.113
-0.351,-0.161,0.887,3.296,8.850,-2.991
-0.355,-0.170,0.888,3.784,9.277,-3.174
-0.363,-0.169,0.891,3.479,9.583,-3.662
-0.373,-0.163,0.894,3.479,9.888,-4.211
-0.374,-0.148,0.903,3.906,10.193,-4.761
-0.378,-0.131,0.920,4.700,10.437,-5.371
-0.381,-0.123,0.940,5.432,10.437,-5.432
-0.378,-0.123,0.958,6.165,10.071,-5.066
-0.378,-0.122,0.968,6.409,9.216,-4.761
-0.389,-0.125,0.966,6.287,8.179,-4.578
-0.397,-0.129,0.943,6.409,6.653,-4.395
-0.402,-0.130,0.921,6.470,5.493,-4.089
-0.409,-0.129,0.911,6.470,5.310,-3.906
-0.407,-0.135,0.930,7.507,6.226,-3.784
-0.394,-0.151,0.968,8.606,7.446,-3.540
-0.386,-0.168,1.003,9.094,7.935,-3.540
-0.383,-0.185,1.021,9.094,7.080,-3.967
-0.387,-0.203,1.019,9.399,5.066,-4.456
-0.390,-0.210,1.004,9.521,3.357,-5.188
-0.396,-0.207,0.993,9.216,2.136,-6.104
-0.399,-0.195,0.985,9.155,1.282,-7.019
-0.395,-0.176,0.986,9.705,0.732,-7.812
-0.415,-0.187,0.987,10.864,-0.366,-8.057
-0.409,-0.201,0.986,10.498,-0.854,-8.606
-0.412,-0.206,1.001,8.789,-0.977,-8.972
-0.415,-0.195,1.011,7.446,-1.343,-9.827
-0.419,-0.168,1.021,6.287,-1.953,-11.108
-0.441,-0.148,1.014,6.348,-2.625,-12.085
-0.461,-0.152,0.996,7.263,-4.028,-12.085
-0.466,-0.162,0.978,7.568,-4.761,-11.658
-0.467,-0.167,0.974,6.287,-4.395,-11.719
-0.462,-0.169,0.981,5.798,-3.906,-12.085
-0.452,-0.155,0.967,5.981,-3.418,-12.573
-0.473,-0.103,0.949,4.761,-3.845,-13.123
-0.457,-0.033,0.906,5.066,-3.540,-12.695
-0.444,0.016,0.861,5.981,-2.380,-10.437
-0.419,0.028,0.849,6.775,0.061,-6.775
-0.382,0.024,0.853,10.742,4.639,-2.930
-0.341,-0.033,0.863,16.541,10.925,0.732
-0.280,-0.103,0.931,14.709,18.127,5.676
-0.222,-0.202,1.029,12.939,25.085,10.254
-0.161,-0.318,1.154,13.916,30.518,12.390
-0.122,-0.434,1.259,14.099,32.471,11.230
-0.117,-0.499,1.337,12.085,30.090,6.958
-0.143,-0.486,1.330,7.019,22.827,0.977
-0.175,-0.398,1.237,-0.854,11.292,-4.333
-0.239,-0.283,1.097,-6.592,0.122,-9.033
-0.272,-0.186,0.961,-6.836,-6.592,-12.695
-0.308,-0.101,0.856,-4.395,-10.010,-15.442
-0.358,-0.037,0.768,-1.160,-11.353,-16.479
-0.367,-0.023,0.739,4.395,-9.155,-15.137
-0.353,-0.065,0.761,7.812,-4.395,-11.169
-0.327,-0.140,0.835,6.409,-0.183,-6.165
-0.274,-0.221,0.907,0.854,2.380,-1.953
-0.222,-0.239,0.972,-0.977,3.357,-1.526
-0.195,-0.245,1.020,4.578,3.418,-3.601
-0.187,-0.259,1.031,7.019,1.465,-4.456
-0.179,-0.244,1.017,3.540,-1.648,-4.150
-0.180,-0.235,0.982,0.916,-4.700,-2.930
-0.173,-0.244,0.931,0.549,-7.568,-1.465
-0.175,-0.251,0.891,0.427,-8.972,-0.732
-0.181,-0.255,0.858,0.732,-8.667,-0.610
-0.193,-0.261,0.833,1.038,-7.751,-0.244
-0.206,-0.276,0.809,0.977,-6.409,0.061
-0.220,-0.284,0.793,0.671,-4.333,0.061
-0.239,-0.284,0.783,0.427,-2.136,-0.366
-0.260,-0.280,0.775,0.427,0.244,-0.854
-0.278,-0.266,0.764,0.854,2.747,-1.587
-0.294,-0.237,0.766,1.770,5.432,-2.625
-0.306,-0.208,0.789,4.150,8.667,-3.540
-0.308,-0.193,0.831,6.409,11.963,-3.723
-0.310,-0.192,0.880,7.751,14.526,-2.808
-0.302,-0.199,0.922,8.179,15.503,-1.831
-0.296,-0.206,0.962,9.155,15.564,-1.526
-0.294,-0.220,0.997,10.132,15.320,-1.160
-0.292,-0.231,1.019,9.460,14.099,-0.977
-0.295,-0.239,1.028,7.935,11.597,-0.793
-0.298,-0.241,1.014,6.592,8.789,-0.793
-0.306,-0.238,0.994,5.676,6.042,-0.854
-0.316,-0.244,0.959,4.272,3.784,-0.671
-0.326,-0.251,0.925,3.235,2.258,-0.549
-0.329,-0.248,0.899,2.136,1.587,-0.610
-0.334,-0.247,0.878,1.648,1.587,-0.732
-0.333,-0.252,0.864,1.587,2.258,-0.732
-0.334,-0.247,0.853,1.587,2.930,-0.610
-0.333,-0.242,0.846,1.404,3.479,-0.488
-0.332,-0.234,0.847,1.770,4.395,-0.488
-0.328,-0.227,0.859,2.502,5.615,-0.366
-0.322,-0.222,0.876,3.479,6.714,-0.183
-0.314,-0.215,0.898,4.211,7.446,0.061
-0.310,-0.205,0.916,5.005,7.812,0.732
-0.308,-0.208,0.935,6.165,7.874,1.892
-0.302,-0.230,0.954,7.202,7.690,2.869
-0.300,-0.257,0.972,7.019,7.141,3.662
-0.301,-0.278,0.983,5.981,6.104,3.540
-0.307,-0.283,0.974,4.456,4.578,2.808
-0.322,-0.266,0.953,3.235,2.747,1.587
-0.341,-0.241,0.920,2.563,0.977,0.549
-0.358,-0.219,0.884,2.563,0.183,-0.183
-0.372,-0.196,0.859,2.441,0.244,-0.366
-0.384,-0.169,0.855,1.587,1.282,-0.244
-0.390,-0.156,0.862,1.282,2.808,0.366
-0.384,-0.155,0.881,0.977,4.028,1.465
-0.384,-0.166,0.902,0.488,5.066,2.625
-0.387,-0.191,0.917,0.244,5.249,3.540
-0.384,-0.214,0.924,0.488,5.188,4.028
-0.384,-0.227,0.932,0.305,4.883,3.723
-0.385,-0.229,0.933,-0.488,3.967,3.296
-0.389,-0.227,0.926,-0.854,3.174,2.625
-0.396,-0.219,0.913,-0.610,2.197,1.953
-0.398,-0.208,0.896,-0.793,1.343,1.831
-0.400,-0.191,0.881,-1.404,0.977,2.075
-0.403,-0.181,0.873,-1.831,1.099,2.747
-0.402,-0.180,0.873,-1.465,1.892,3.845
-0.398,-0.187,0.887,-0.732,2.808,5.066
-0.387,-0.202,0.914,-0.671,3.906,5.981
-0.386,-0.219,0.932,-0.916,4.272,6.653
-0.382,-0.215,0.938,-1.526,3.845,6.531
-0.381,-0.197,0.946,-2.014,2.930,6.226
-0.381,-0.178,0.958,-2.197,2.319,6.165
-0.381,-0.168,0.977,-2.197,1.953,6.653
-0.380,-0.164,0.999,-2.197,1.404,7.629
-0.376,-0.168,1.007,-2.258,0.427,8.606
-0.379,-0.165,1.009,-2.502,-0.916,9.277
-0.383,-0.161,1.000,-3.174,-2.014,9.888
-0.383,-0.167,0.982,-3.662,-2.563,10.681
-0.380,-0.176,0.974,-4.333,-2.930,11.536
-0.382,-0.183,0.984,-4.761,-3.113,11.963
-0.362,-0.197,0.991,-4.517,-2.808,12.207
-0.381,-0.177,0.995,-5.737,-3.418,11.719
-0.383,-0.135,0.982,-7.080,-4.883,11.230
-0.390,-0.111,0.982,-7.324,-5.554,11.963
-0.391,-0.104,0.992,-7.019,-5.310,13.428
-0.393,-0.105,0.999,-5.737,-4.822,15.259
-0.388,-0.138,1.012,-4.028,-3.784,17.517
-0.380,-0.186,1.011,-2.991,-2.808,19.592
-0.381,-0.210,0.996,-3.418,-2.502,20.630
-0.385,-0.219,0.960,-2.930,-2.136,20.813
-0.376,-0.221,0.932,-1.709,-0.610,20.447
-0.357,-0.218,0.933,-0.732,2.930,20.142
-0.314,-0.207,0.975,-1.343,7.263,20.081
-0.292,-0.182,1.052,-3.723,10.925,20.264
-0.260,-0.204,1.125,-5.554,12.634,21.423
-0.226,-0.281,1.170,-6.592,12.085,23.071
-0.208,-0.336,1.180,-9.338,9.277,22.949
-0.219,-0.336,1.161,-12.512,5.005,20.813
-0.228,-0.315,1.129,-13.916,0.854,17.822
-0.246,-0.246,1.085,-14.587,-2.991,14.709
-0.262,-0.164,1.031,-14.282,-6.714,12.756
-0.280,-0.109,0.979,-12.634,-10.010,12.878
-0.288,-0.076,0.933,-10.071,-12.085,14.282
-0.295,-0.069,0.899,-5.920,-13.184,15.991
-0.294,-0.106,0.872,-1.465,-13.550,18.188
-0.284,-0.167,0.851,1.038,-12.695,20.325
-0.266,-0.220,0.854,2.075,-11.414,21.606
-0.248,-0.250,0.865,1.648,-10.376,21.484
-0.240,-0.289,0.866,0.488,-10.071,21.423
-0.216,-0.300,0.852,-1.343,-10.498,20.203
-0.209,-0.275,0.842,-0.305,-10.437,17.090
-0.203,-0.264,0.840,1.038,-9.705,15.015
-0.195,-0.251,0.841,-0.244,-8.667,14.038
-0.193,-0.261,0.836,-1.404,-8.057,13.916
-0.182,-0.282,0.826,-2.014,-7.019,13.428
-0.181,-0.297,0.828,-2.686,-5.249,12.268
-0.179,-0.303,0.836,-3.479,-3.052,10.376
-0.178,-0.286,0.844,-4.517,-1.587,7.996
-0.187,-0.253,0.852,-5.676,-0.122,5.737
-0.198,-0.215,0.857,-5.859,1.221,3.845
-0.209,-0.177,0.864,-5.005,2.197,2.563
-0.225,-0.142,0.879,-4.028,3.601,1.648
-0.239,-0.119,0.890,-4.028,4.822,1.465
-0.251,-0.118,0.894,-3.723,5.493,2.075
-0.261,-0.115,0.896,-2.869,5.737,2.258
-0.273,-0.103,0.901,-1.587,6.592,1.831
-0.289,-0.083,0.912,0.183,7.996,1.526
-0.302,-0.063,0.926,1.282,8.972,1.465
-0.311,-0.057,0.938,2.258,9.949,2.136
-0.314,-0.066,0.954,3.174,10.864,3.418
-0.308,-0.072,0.975,3.601,11.536,4.395
-0.307,-0.094,0.998,4.028,11.902,5.249
-0.301,-0.114,1.012,4.089,11.658,5.859
-0.302,-0.132,1.026,4.150,10.864,5.981
-0.298,-0.145,1.025,3.479,9.521,5.920
-0.292,-0.153,1.019,2.625,8.057,5.798
-0.298,-0.152,1.006,1.953,6.348,5.554
-0.304,-0.157,0.990,1.770,5.188,5.249
-0.305,-0.166,0.970,1.343,4.028,5.493
-0.304,-0.172,0.948,1.099,3.296,5.676
-0.306,-0.180,0.934,1.648,3.052,5.798
-0.302,-0.192,0.925,2.380,3.052,5.798
-0.297,-0.206,0.924,2.930,3.357,5.371
-0.291,-0.212,0.922,3.113,3.906,4.700
-0.284,-0.205,0.921,2.869,4.272,3.967
-0.281,-0.196,0.917,2.686,4.395,2.991
-0.279,-0.190,0.910,2.991,4.944,2.136
-0.278,-0.189,0.908,2.869,5.737,1.404
-0.272,-0.181,0.912,2.014,6.653,0.732
-0.270,-0.165,0.922,1.587,7.446,0.122
-0.271,-0.146,0.937,1.587,7.935,-0.427
-0.273,-0.132,0.959,1.831,8.667,-0.549
-0.279,-0.126,0.988,2.380,9.094,-0.122
-0.276,-0.132,1.008,2.747,9.033,0.427
-0.282,-0.155,1.023,3.113,8.484,0.977
-0.284,-0.175,1.023,3.479,7.385,1.160
-0.293,-0.183,1.017,3.723,6.165,0.488
-0.303,-0.174,1.003,3.296,5.066,-0.427
-0.310,-0.148,0.994,3.052,4.272,-1.282
-0.310,-0.123,0.986,3.235,3.784,-1.526
-0.315,-0.112,0.980,3.967,3.418,-1.465
-0.311,-0.112,0.977,5.066,3.662,-1.343
-0.303,-0.116,0.978,6.042,4.150,-1.099
-0.301,-0.119,0.982,6.470,4.639,-0.854
-0.294,-0.118,0.988,7.141,5.005,-0.916
-0.285,-0.121,0.998,7.507,5.493,-0.854
-0.277,-0.130,1.012,7.690,6.104,-0.610
-0.268,-0.143,1.038,7.507,6.226,-0.244
-0.265,-0.158,1.063,7.202,5.920,-0.061
-0.266,-0.160,1.087,6.042,5.249,-0.305
-0.271,-0.161,1.097,5.005,3.601,-0.488
-0.280,-0.161,1.084,3.845,1.038,-0.549
-0.285,-0.156,1.052,2.441,-1.648,-0.671
-0.295,-0.146,1.007,1.465,-3.479,-0.610
-0.302,-0.133,0.968,1.038,-5.127,-0.671
-0.304,-0.120,0.943,1.160,-5.676,-0.549
-0.305,-0.119,0.927,2.197,-5.371,0.061
-0.294,-0.137,0.913,3.418,-5.127,1.038
-0.287,-0.165,0.905,4.517,-4.578,2.258
-0.279,-0.193,0.891,5.188,-3.662,2.441
-0.266,-0.216,0.885,5.676,-2.808,2.319
-0.254,-0.223,0.892,5.493,-1.892,1.648
-0.249,-0.217,0.909,4.517,-0.793,0.549
-0.240,-0.200,0.932,3.845,0.000,-0.366
-0.237,-0.189,0.953,2.930,0.244,-0.854
-0.250,-0.184,0.964,1.831,-0.061,-1.404
-0.261,-0.164,0.946,0.671,-0.916,-2.014
-0.275,-0.136,0.914,-0.183,-1.953,-2.563
-0.291,-0.115,0.883,-0.916,-2.014,-2.380
-0.309,-0.097,0.868,-0.244,-1.221,-2.075
-0.317,-0.094,0.868,0.610,0.854,-1.343
-0.316,-0.099,0.879,1.099,2.930,-0.549
-0.320,-0.095,0.906,1.343,4.639,0.061
-0.319,-0.103,0.941,1.892,5.859,0.916
-0.311,-0.125,0.969,2.930,6.653,1.770
-0.305,-0.134,0.981,2.869,5.981,2.319
-0.305,-0.130,0.970,2.686,4.089,2.136
-0.314,-0.120,0.946,3.418,2.258,2.075
-0.324,-0.122,0.915,4.333,1.038,2.441
-0.327,-0.145,0.893,5.615,0.732,3.723
-0.324,-0.171,0.893,5.920,1.648,4.822
-0.318,-0.201,0.908,6.226,3.235,5.188
-0.305,-0.222,0.928,6.470,4.517,4.822
-0.301,-0.222,0.945,5.310,5.066,4.150
-0.305,-0.214,0.948,4.150,4.883,2.930
-0.305,-0.202,0.941,3.784,4.272,2.075
-0.315,-0.183,0.934,3.296,3.662,1.282
-0.317,-0.162,0.922,2.808,3.174,1.099
-0.324,-0.148,0.902,2.747,2.563,1.282
-0.333,-0.147,0.889,3.113,2.808,2.075
-0.336,-0.159,0.885,3.479,4.028,2.991
-0.332,-0.174,0.903,3.540,5.981,3.662
-0.325,-0.187,0.936,2.808,7.935,3.784
-0.318,-0.192,0.973,1.892,9.521,3.845
-0.317,-0.189,1.004,1.160,9.766,3.296
-0.315,-0.188,1.026,0.854,9.033,2.747
-0.320,-0.185,1.029,0.732,7.385,2.075
-0.330,-0.171,1.011,0.366,5.127,1.587
-0.336,-0.151,0.988,0.427,2.930,1.282
-0.346,-0.137,0.961,0.854,1.282,1.404
-0.355,-0.137,0.940,1.282,0.610,1.892
-0.357,-0.151,0.921,2.014,0.549,2.869
-0.350,-0.152,0.909,2.014,0.977,3.296
-0.351,-0.147,0.908,2.319,1.770,3.601
-0.346,-0.155,0.909,3.357,2.625,4.272
-0.341,-0.179,0.916,3.784,3.418,4.883
-0.335,-0.200,0.925,3.845,4.150,5.371
-0.329,-0.206,0.936,3.662,4.822,5.127
-0.325,-0.200,0.956,3.601,5.310,4.333
-0.328,-0.192,0.980,3.479,5.676,3.784
-0.327,-0.184,0.995,3.235,5.066,3.418
-0.328,-0.177,0.998,2.869,3.845,3.296
-0.333,-0.174,0.988,2.258,2.380,3.296
-0.339,-0.178,0.978,1.587,0.977,3.418
-0.347,-0.179,0.966,1.404,0.244,3.784
-0.352,-0.172,0.946,0.977,-0.549,3.601
-0.354,-0.166,0.928,1.099,-1.160,3.601
-0.356,-0.166,0.920,1.587,-1.160,3.784
-0.357,-0.170,0.915,1.953,-0.610,4.089
-0.358,-0.174,0.908,2.380,-0.305,4.211
-0.354,-0.184,0.898,2.686,-0.061,4.333
-0.345,-0.199,0.901,3.357,0.732,4.211
-0.349,-0.187,0.906,3.296,1.343,3.601
-0.346,-0.194,0.928,3.784,2.258,3.723
-0.342,-0.203,0.945,3.479,2.808,4.150
-0.340,-0.201,0.957,2.686,2.625,3.662
-0.337,-0.208,0.965,2.991,2.258,3.662
-0.339,-0.207,0.957,2.686,1.282,3.540
-0.351,-0.200,0.933,2.319,0.305,2.808
-0.355,-0.192,0.910,2.258,-0.244,2.502
-0.354,-0.182,0.903,1.709,0.061,2.380
-0.357,-0.168,0.912,1.770,0.793,2.319
-0.353,-0.176,0.923,2.563,1.587,2.625
-0.345,-0.190,0.932,2.808,1.709,3.052
-0.334,-0.195,0.937,2.380,1.648,3.174
-0.328,-0.193,0.939,2.075,1.465,3.174
-0.328,-0.192,0.937,2.319,0.977,3.174
-0.323,-0.185,0.932,1.953,0.244,3.418
-0.317,-0.184,0.926,1.831,-0.183,3.357
-0.314,-0.186,0.926,2.258,-0.122,3.662
-0.311,-0.194,0.922,2.441,-0.244,3.662
-0.307,-0.200,0.918,3.235,-0.427,3.235
-0.313,-0.209,0.913,3.967,-0.427,2.625
-0.313,-0.207,0.910,4.089,-0.061,1.709
-0.313,-0.187,0.918,3.052,0.427,0.854
-0.319,-0.158,0.926,1.953,0.427,0.183
-0.325,-0.131,0.918,2.014,-0.061,-0.183
-0.341,-0.105,0.894,2.197,-0.793,0.061
-0.364,-0.090,0.866,2.319,-1.282,0.488
-0.379,-0.092,0.844,2.563,-0.549,1.282
-0.392,-0.101,0.840,2.319,0.977,1.892
-0.404,-0.104,0.848,1.709,2.686,2.258
-0.409,-0.102,0.863,1.526,4.456,2.258
-0.413,-0.092,0.883,0.732,6.287,2.075
-0.421,-0.068,0.903,0.061,7.568,1.892
-0.428,-0.050,0.919,0.488,8.240,2.197
-0.439,-0.048,0.932,1.343,8.667,2.869
-0.450,-0.062,0.940,1.770,8.911,3.906
-0.456,-0.078,0.940,1.892,9.094,5.005
-0.456,-0.085,0.945,1.892,9.277,6.042
-0.448,-0.097,0.964,2.380,9.766,6.714
-0.442,-0.113,0.992,2.991,10.132,7.202
-0.435,-0.139,1.007,3.662,9.766,7.751
-0.427,-0.174,1.013,3.845,8.423,8.362
-0.421,-0.201,1.006,3.845,6.836,8.301
-0.414,-0.213,0.998,3.540,5.127,7.751
-0.412,-0.215,0.975,3.296,3.357,6.958
-0.416,-0.206,0.941,3.540,1.404,5.920
-0.418,-0.199,0.905,4.272,-0.183,5.127
-0.413,-0.202,0.877,5.249,-0.793,4.822
-0.403,-0.205,0.863,5.981,-0.427,4.517
-0.396,-0.212,0.865,6.042,0.244,4.211
-0.390,-0.229,0.869,5.737,1.099,4.150
-0.380,-0.236,0.871,5.432,1.709,3.540
-0.371,-0.226,0.883,4.822,2.319,2.258
-0.371,-0.218,0.897,4.944,2.747,1.038
-0.368,-0.209,0.904,4.761,3.113,0.305
-0.369,-0.199,0.911,3.418,2.930,-0.183
-0.370,-0.184,0.918,2.136,2.197,-0.671
-0.379,-0.170,0.915,1.709,1.770,-1.282
-0.392,-0.153,0.905,1.465,1.160,-1.892
-0.403,-0.128,0.889,0.916,0.610,-2.380
-0.413,-0.103,0.868,0.427,0.183,-2.625
-0.425,-0.078,0.853,0.854,0.427,-2.502
-0.437,-0.054,0.847,2.014,1.465,-2.441
-0.445,-0.033,0.853,3.418,2.808,-2.075
-0.446,-0.024,0.874,4.639,4.211,-1.099
-0.439,-0.028,0.900,5.859,5.310,0.061
-0.436,-0.039,0.923,7.019,5.737,1.221
-0.433,-0.062,0.935,8.179,5.432,2.441
-0.429,-0.086,0.940,9.155,4.700,3.174
-0.427,-0.097,0.944,9.216,3.784,3.540
-0.428,-0.105,0.948,9.583,3.113,3.357
-0.435,-0.114,0.945,10.803,2.258,2.991
-0.436,-0.120,0.933,11.353,1.465,2.747
-0.437,-0.131,0.929,11.108,0.732,3.052
-0.439,-0.143,0.933,10.742,0.427,3.052
-0.444,-0.158,0.936,10.132,0.000,2.991
-0.443,-0.169,0.933,9.155,-0.427,2.563
-0.445,-0.175,0.934,8.606,-1.038,2.136
-0.451,-0.180,0.938,8.423,-1.526,1.465
-0.458,-0.186,0.943,8.728,-1.648,0.916
-0.459,-0.201,0.949,9.155,-1.770,0.183
-0.463,-0.208,0.957,8.850,-2.014,-0.366
-0.468,-0.202,0.962,8.362,-2.380,-0.854
-0.470,-0.199,0.963,8.362,-3.052,-1.587
-0.475,-0.201,0.964,8.545,-3.906,-2.441
-0.479,-0.202,0.960,8.545,-4.639,-3.174
-0.482,-0.191,0.954,8.240,-5.371,-3.967
-0.483,-0.174,0.956,8.423,-5.615,-4.700
-0.482,-0.159,0.971,8.850,-5.615,-4.822
-0.473,-0.172,0.984,9.705,-5.066,-4.700
-0.456,-0.195,0.977,10.437,-5.066,-4.456
-0.469,-0.189,0.968,9.521,-5.981,-4.700
-0.465,-0.179,0.940,9.949,-6.531,-5.249
-0.457,-0.161,0.937,10.010,-6.042,-5.432
-0.465,-0.104,0.906,9.338,-5.188,-5.554
-0.446,-0.058,0.883,11.353,-3.479,-4.395
-0.423,-0.062,0.873,12.756,-1.221,-1.343
-0.391,-0.108,0.893,13.794,2.625,2.014
-0.338,-0.169,0.954,15.930,7.996,4.761
-0.276,-0.212,1.035,16.663,13.062,5.859
-0.233,-0.224,1.129,14.832,15.869,5.188
-0.213,-0.241,1.190,13.367,15.564,4.333
-0.200,-0.278,1.199,11.475,12.146,3.723
-0.206,-0.314,1.163,7.507,7.141,2.869
-0.240,-0.344,1.092,2.075,1.465,0.916
-0.265,-0.349,0.997,-1.282,-2.441,-2.197
-0.298,-0.297,0.912,-3.784,-4.395,-6.592
-0.331,-0.212,0.853,-5.798,-4.639,-10.681
-0.360,-0.111,0.828,-5.676,-3.418,-13.733
-0.392,-0.051,0.835,-3.235,-1.709,-14.160
-0.409,-0.054,0.826,-0.916,0.305,-11.658
-0.410,-0.089,0.837,0.366,2.869,-7.507
-0.388,-0.154,0.870,-0.183,5.432,-3.723
-0.352,-0.178,0.921,0.488,7.935,-2.930
-0.323,-0.198,0.995,5.188,9.644,-3.601
-0.282,-0.218,1.059,6.958,9.521,-3.662
-0.252,-0.227,1.095,4.822,6.470,-3.113
-0.237,-0.236,1.090,2.563,1.099,-2.014
-0.222,-0.239,1.037,1.465,-4.211,-1.953
-0.220,-0.224,0.964,1.404,-8.728,-2.625
-0.224,-0.201,0.894,2.075,-11.719,-3.052
-0.230,-0.191,0.839,3.113,-12.512,-2.869
-0.230,-0.189,0.804,3.723,-11.475,-1.953
-0.223,-0.183,0.782,3.296,-9.644,-0.977
-0.213,-0.183,0.768,2.563,-7.263,-0.061
-0.215,-0.180,0.763,3.540,-4.578,0.244
-0.220,-0.180,0.763,5.798,-1.831,0.000
-0.220,-0.185,0.781,7.507,1.282,0.000
-0.214,-0.188,0.824,8.484,4.822,0.183
-0.209,-0.182,0.883,8.789,7.935,0.366
-0.206,-0.174,0.933,8.179,9.338,0.549
-0.211,-0.167,0.970,6.897,9.094,1.160
-0.220,-0.165,0.992,5.554,8.118,2.075
-0.237,-0.157,0.998,4.883,6.714,2.441
-0.259,-0.146,0.990,4.272,5.249,2.991
-0.279,-0.146,0.975,3.113,3.967,4.028
-0.295,-0.155,0.955,2.380,3.235,5.615
-0.312,-0.159,0.933,1.892,2.808,6.897
-0.324,-0.170,0.909,1.587,2.747,7.874
-0.333,-0.182,0.889,2.075,3.113,8.850
-0.343,-0.188,0.870,2.136,3.906,9.644
-0.343,-0.183,0.860,2.625,4.944,10.254
-0.352,-0.187,0.859,3.662,6.226,11.353
-0.348,-0.202,0.862,4.761,7.996,12.329
-0.339,-0.225,0.876,5.615,9.583,13.184
-0.330,-0.248,0.904,6.104,10.864,14.038
-0.316,-0.272,0.932,6.836,11.963,14.282
-0.309,-0.293,0.957,6.836,12.451,14.038
-0.302,-0.310,0.970,7.080,11.902,13.306
-0.293,-0.316,0.984,6.653,11.108,12.146
-0.285,-0.299,1.001,5.554,10.437,10.803
-0.286,-0.280,1.018,5.005,9.338,10.071
-0.287,-0.283,1.019,4.822,7.385,9.766
-0.292,-0.293,1.003,4.272,5.066,9.521
-0.293,-0.286,0.974,3.052,2.869,9.094
-0.298,-0.276,0.940,2.136,1.770,8.728
-0.301,-0.266,0.915,2.197,1.282,7.935
-0.304,-0.253,0.903,2.441,1.831,7.751
-0.299,-0.241,0.907,2.808,2.686,7.812
-0.294,-0.241,0.925,3.235,3.540,8.301
-0.293,-0.263,0.937,3.479,4.089,8.789
-0.290,-0.288,0.937,3.052,3.845,8.850
-0.286,-0.298,0.933,2.441,3.357,8.301
-0.294,-0.292,0.926,1.831,3.052,7.446
-0.299,-0.278,0.911,1.282,2.869,6.531
-0.305,-0.256,0.901,0.977,3.113,6.104
-0.310,-0.229,0.910,0.732,3.845,5.981
-0.308,-0.218,0.931,0.366,4.517,6.470
-0.307,-0.214,0.956,0.183,5.127,7.385
-0.306,-0.218,0.965,0.000,4.700,8.423
-0.307,-0.228,0.959,0.366,3.479,9.033
-0.315,-0.243,0.940,0.793,2.380,9.155
-0.320,-0.253,0.925,0.671,1.892,9.094
-0.320,-0.257,0.922,0.000,2.014,8.606
-0.322,-0.260,0.925,0.183,2.258,8.423
-0.324,-0.259,0.922,0.183,1.831,7.935
-0.322,-0.253,0.916,-0.366,1.038,7.690
-0.324,-0.248,0.907,-0.854,0.488,7.568
-0.329,-0.240,0.894,-1.526,0.488,7.996
-0.337,-0.229,0.873,-1.892,0.854,8.545
-0.332,-0.222,0.873,-2.075,2.014,9.216
-0.335,-0.198,0.890,-1.038,4.028,9.949
-0.341,-0.206,0.885,0.610,6.104,10.925
-0.358,-0.222,0.903,1.587,8.545,12.573
-0.356,-0.228,0.902,-0.916,10.681,14.465
-0.350,-0.245,0.916,-3.540,12.756,16.602
-0.348,-0.268,0.929,-0.854,14.893,17.395
-0.348,-0.264,0.945,-0.427,16.663,16.357
-0.349,-0.259,0.961,0.305,18.311,15.381
-0.339,-0.269,0.967,1.953,19.104,14.832
-0.334,-0.270,0.984,1.648,19.653,14.954
-0.320,-0.300,1.017,0.793,20.752,14.587
-0.300,-0.345,1.063,1.831,21.545,13.000
-0.288,-0.370,1.110,1.892,20.996,9.644
-0.273,-0.364,1.141,0.977,18.372,5.310
-0.267,-0.331,1.164,-0.854,14.221,1.526
-0.270,-0.297,1.158,-1.709,8.362,-0.916
-0.267,-0.269,1.134,-2.197,2.014,-2.380
-0.270,-0.250,1.080,-2.258,-3.723,-3.601
-0.285,-0.220,1.016,-2.319,-9.216,-4.578
-0.300,-0.206,0.947,-1.953,-13.306,-4.822
-0.301,-0.208,0.887,-1.465,-15.320,-4.150
-0.299,-0.210,0.842,-1.587,-15.381,-3.052
-0.294,-0.216,0.814,-1.038,-14.221,-2.136
-0.282,-0.221,0.798,-0.244,-12.146,-1.526
-0.270,-0.224,0.796,-0.183,-9.644,-1.282
-0.261,-0.214,0.794,-0.244,-7.324,-1.099
-0.257,-0.207,0.795,0.427,-5.493,-0.916
-0.254,-0.212,0.806,1.465,-3.723,-0.854
-0.244,-0.217,0.817,2.563,-2.380,-0.916
-0.246,-0.220,0.827,3.113,-1.465,-1.099
-0.249,-0.215,0.821,3.479,-0.549,-1.465
-0.262,-0.203,0.809,3.357,-0.305,-1.587
-0.270,-0.192,0.789,2.930,0.366,-1.709
-0.291,-0.187,0.792,3.113,2.136,-2.014
-0.312,-0.163,0.791,3.418,4.150,-2.014
-0.315,-0.157,0.787,3.113,6.287,-1.404
-0.323,-0.155,0.806,2.686,8.911,-0.793
-0.325,-0.164,0.831,2.991,11.292,-0.244
-0.319,-0.185,0.854,3.113,13.000,0.427
-0.323,-0.202,0.880,2.808,13.916,0.488
-0.324,-0.212,0.895,3.479,14.343,0.000
-0.324,-0.221,0.903,3.845,14.282,-0.549
-0.322,-0.221,0.915,3.723,14.465,-1.038
-0.321,-0.219,0.930,3.784,14.709,-1.770
-0.322,-0.214,0.941,4.456,14.526,-2.625
-0.317,-0.204,0.955,4.700,14.282,-3.174
-0.318,-0.198,0.964,5.188,13.855,-3.235
-0.316,-0.197,0.982,5.615,13.489,-2.930
-0.318,-0.201,0.993,5.005,13.062,-2.380
-0.318,-0.216,0.993,4.517,12.329,-2.075
-0.321,-0.223,0.991,5.127,11.169,-2.563
-0.330,-0.208,0.969,4.883,10.559,-2.991
-0.333,-0.198,0.976,5.127,10.681,-3.235
-0.326,-0.183,0.994,4.944,11.292,-3.418
-0.327,-0.180,1.011,4.517,11.353,-3.174
-0.335,-0.185,1.036,4.578,10.193,-2.991
-0.329,-0.190,1.025,5.310,8.301,-2.747
-0.329,-0.180,1.012,4.517,7.141,-2.747
-0.335,-0.159,1.006,2.930,6.714,-2.502
-0.339,-0.129,1.002,2.808,6.348,-2.319
-0.338,-0.117,1.017,4.456,6.226,-1.770
-0.323,-0.156,1.035,6.653,5.737,-0.854
-0.328,-0.177,1.008,6.531,4.333,-0.183
-0.328,-0.188,1.009,3.845,3.418,0.793
-0.329,-0.208,1.005,3.662,3.052,1.648
-0.314,-0.215,1.001,3.479,2.747,1.465
-0.305,-0.205,1.012,3.235,2.991,0.793
-0.301,-0.206,1.027,3.967,2.808,0.183
-0.293,-0.215,1.037,4.517,2.197,-0.488
-0.294,-0.213,1.041,3.845,1.160,-0.732
-0.292,-0.202,1.020,3.052,-0.244,-0.916
-0.290,-0.189,1.000,2.014,-1.892,-1.038
-0.293,-0.184,0.992,1.404,-2.502,-1.221
-0.302,-0.184,0.982,1.892,-2.686,-1.099
-0.302,-0.184,0.962,2.319,-2.686,-1.099
-0.301,-0.188,0.950,2.136,-2.869,-0.977
-0.300,-0.197,0.945,1.282,-3.052,-0.916
-0.302,-0.196,0.935,0.244,-3.418,-0.916
-0.302,-0.187,0.923,-0.061,-3.296,-0.977
-0.302,-0.185,0.907,-0.305,-3.174,-0.854
-0.301,-0.194,0.894,0.122,-2.991,-0.671
-0.306,-0.210,0.877,1.099,-2.441,-0.732
-0.309,-0.215,0.859,1.343,-2.136,-0.671
-0.309,-0.212,0.850,0.854,-1.282,-0.488
-0.309,-0.215,0.855,0.366,0.000,-0.427
-0.307,-0.215,0.864,0.671,1.221,-0.488
-0.315,-0.216,0.864,0.793,2.197,-0.610
-0.323,-0.218,0.861,1.038,3.052,-0.549
-0.322,-0.238,0.859,1.404,3.479,-0.183
-0.320,-0.268,0.858,1.953,4.150,0.061
-0.333,-0.274,0.854,2.136,5.005,-0.305
-0.335,-0.268,0.849,2.625,5.737,-0.977
-0.333,-0.261,0.850,2.869,6.409,-1.465
-0.333,-0.253,0.862,3.418,7.385,-1.831
-0.332,-0.256,0.885,4.639,8.362,-1.953
-0.332,-0.284,0.910,6.958,9.338,-1.892
-0.327,-0.324,0.927,8.606,9.521,-2.319
-0.320,-0.359,0.920,8.240,8.545,-2.563
-0.323,-0.373,0.911,7.812,7.080,-3.479
-0.335,-0.369,0.894,9.033,6.042,-5.371
-0.335,-0.366,0.883,10.803,6.042,-7.263
-0.336,-0.361,0.892,12.329,6.897,-8.728
-0.328,-0.366,0.921,12.573,7.629,-9.583
-0.323,-0.381,0.942,12.573,7.568,-10.437
-0.330,-0.400,0.959,12.817,6.897,-11.414
-0.334,-0.415,0.948,12.878,5.554,-12.817
-0.349,-0.411,0.918,12.390,3.662,-14.465
-0.370,-0.391,0.879,12.390,1.953,-16.235
-0.388,-0.386,0.848,13.428,1.648,-17.334
-0.392,-0.393,0.830,14.465,2.869,-18.005
-0.399,-0.402,0.822,15.137,4.700,-18.677
-0.403,-0.410,0.825,14.832,6.531,-19.348
-0.404,-0.402,0.844,14.526,8.728,-20.142
-0.386,-0.426,0.863,15.381,11.230,-21.179
-0.383,-0.449,0.900,16.113,13.855,-22.400
-0.378,-0.456,0.937,14.771,15.808,-24.292
-0.365,-0.459,0.961,14.587,16.113,-26.123
-0.357,-0.447,0.978,14.709,15.625,-28.625
-0.352,-0.432,0.979,14.404,14.771,-31.006
-0.347,-0.415,0.974,14.893,13.489,-33.325
-0.344,-0.389,0.966,14.648,12.085,-35.461
-0.343,-0.359,0.951,13.977,10.376,-37.292
-0.337,-0.334,0.937,13.428,9.155,-38.513
-0.333,-0.317,0.921,13.428,8.423,-39.307
-0.328,-0.308,0.913,13.245,7.690,-39.856
-0.330,-0.291,0.909,13.611,7.568,-40.283
-0.330,-0.272,0.919,14.832,8.179,-40.405
-0.320,-0.282,0.915,16.541,8.362,-40.100
-0.315,-0.289,0.918,15.564,8.362,-39.368
-0.300,-0.280,0.933,14.771,8.667,-39.063
-0.308,-0.281,0.930,16.663,8.484,-38.757
-0.298,-0.275,0.924,16.296,8.362,-39.307
-0.300,-0.266,0.934,15.076,8.240,-39.368
-0.299,-0.262,0.932,15.442,7.812,-39.429
-0.297,-0.258,0.918,15.564,6.897,-39.673
-0.297,-0.242,0.901,15.015,5.981,-39.673
-0.300,-0.220,0.888,14.832,5.615,-39.673
-0.316,-0.202,0.880,15.808,5.493,-39.612
-0.321,-0.180,0.876,16.663,5.859,-39.124
-0.321,-0.174,0.878,16.235,6.836,-37.781
-0.323,-0.185,0.873,15.137,7.446,-36.255
-0.322,-0.200,0.858,14.038,7.385,-34.790
-0.328,-0.202,0.841,12.817,7.690,-33.813
-0.327,-0.202,0.835,12.329,8.301,-33.386
-0.333,-0.187,0.835,11.780,9.399,-32.898
-0.346,-0.166,0.848,10.437,10.254,-32.410
-0.340,-0.162,0.862,10.742,10.925,-31.433
-0.342,-0.175,0.873,11.169,11.230,-29.663
-0.345,-0.183,0.879,11.169,11.047,-28.259
-0.346,-0.197,0.886,11.536,10.803,-26.917
-0.360,-0.202,0.880,11.658,10.620,-26.062
-0.361,-0.204,0.890,13.428,11.292,-25.452
-0.354,-0.224,0.906,15.686,11.841,-25.085
-0.358,-0.221,0.925,12.878,11.658,-24.414
-0.355,-0.212,0.935,9.705,11.353,-23.376
-0.346,-0.199,0.940,8.240,10.498,-22.400
-0.355,-0.167,0.939,6.653,9.277,-22.095
-0.367,-0.131,0.938,5.859,8.301,-21.545
-0.375,-0.124,0.943,6.592,7.751,-19.714
-0.379,-0.134,0.962,6.653,7.629,-17.212
-0.380,-0.149,0.985,7.019,7.568,-14.648
-0.395,-0.181,1.006,9.155,7.019,-12.634
-0.386,-0.200,1.008,9.583,5.859,-11.230
-0.394,-0.187,1.012,7.690,4.578,-10.315
-0.400,-0.185,1.007,7.202,3.174,-9.338
-0.390,-0.182,0.997,6.775,1.526,-8.057
-0.390,-0.156,0.995,4.395,-0.183,-6.897
-0.386,-0.145,0.992,2.991,-1.282,-5.554
-0.381,-0.149,0.985,2.686,-2.197,-3.601
-0.387,-0.157,0.967,2.014,-2.930,-1.709
-0.386,-0.149,0.951,1.770,-3.845,-0.183
-0.385,-0.157,0.925,4.822,-4.150,1.587
-0.373,-0.166,0.915,6.897,-3.723,3.052
-0.392,-0.154,0.884,6.165,-3.479,5.127
-0.374,-0.189,0.849,10.803,-2.197,8.362
-0.336,-0.236,0.856,12.817,1.465,11.841
-0.306,-0.280,0.930,8.911,7.446,14.343
-0.268,-0.367,1.047,7.141,13.672,15.625
-0.220,-0.443,1.167,7.263,16.602,14.465
-0.190,-0.467,1.243,5.676,14.954,10.193
-0.198,-0.445,1.260,1.953,8.728,5.249
-0.223,-0.355,1.200,-1.953,-0.244,0.305
-0.267,-0.239,1.083,-3.967,-9.094,-2.869
-0.315,-0.115,0.966,-4.272,-16.541,-3.906
-0.329,-0.031,0.853,-4.028,-20.752,-2.563
-0.350,-0.013,0.798,-0.793,-20.203,0.671
-0.336,-0.029,0.789,4.395,-15.808,3.845
-0.319,-0.057,0.798,10.193,-9.460,5.859
-0.298,-0.094,0.849,12.085,-3.052,8.545
-0.271,-0.128,0.930,8.606,2.197,11.597
-0.237,-0.162,1.007,6.409,5.737,13.672
-0.212,-0.196,1.070,6.653,7.385,13.977
-0.190,-0.204,1.102,5.493,6.836,12.939
-0.183,-0.189,1.110,4.150,4.639,11.047
-0.196,-0.177,1.097,3.113,1.343,9.949
-0.216,-0.182,1.057,2.014,-1.831,9.094
-0.239,-0.196,1.002,0.977,-4.822,8.606
-0.257,-0.211,0.948,0.000,-7.202,7.690
-0.269,-0.208,0.908,-1.038,-7.874,6.042
-0.278,-0.199,0.883,-2.014,-7.080,4.089
-0.286,-0.179,0.868,-2.747,-5.920,2.136
-0.297,-0.151,0.860,-3.418,-4.456,0.610
-0.307,-0.130,0.849,-3.540,-3.113,-0.488
-0.313,-0.119,0.839,-3.235,-2.075,-0.854
-0.313,-0.106,0.845,-3.235,-0.427,-0.732
-0.309,-0.095,0.874,-3.235,1.831,-0.732
-0.310,-0.102,0.907,-2.808,3.662,-0.671
-0.305,-0.121,0.926,-2.136,4.395,-0.427
-0.301,-0.136,0.930,-2.441,4.150,-0.305
-0.297,-0.141,0.922,-3.723,3.662,-0.366
-0.297,-0.131,0.914,-5.066,3.479,-0.732
-0.299,-0.118,0.917,-5.737,4.456,-1.221
-0.299,-0.113,0.928,-5.371,5.981,-1.526
-0.291,-0.103,0.950,-5.676,7.446,-2.014
-0.282,-0.082,0.979,-6.348,8.362,-2.136
-0.282,-0.068,1.000,-6.592,8.606,-2.197
-0.292,-0.065,1.001,-6.042,7.874,-1.892
-0.299,-0.056,0.991,-5.310,6.531,-1.282
-0.311,-0.051,0.977,-5.249,5.066,-0.793
-0.318,-0.061,0.959,-4.822,4.211,-0.122
-0.325,-0.077,0.947,-3.784,3.540,0.977
-0.321,-0.097,0.927,-2.869,3.113,1.526
-0.313,-0.103,0.919,-2.258,2.747,1.587
-0.304,-0.095,0.916,-1.587,2.502,1.282
-0.297,-0.086,0.919,-1.038,2.930,1.160
-0.291,-0.083,0.915,-0.610,3.113,1.465
-0.283,-0.083,0.912,-0.305,3.113,2.197
-0.278,-0.088,0.912,-0.183,3.296,2.930
-0.276,-0.102,0.918,0.122,3.967,3.723
-0.269,-0.132,0.929,1.282,4.883,4.211
-0.263,-0.158,0.943,1.404,5.554,4.028
-0.263,-0.165,0.955,0.671,5.371,3.357
-0.268,-0.152,0.961,-0.671,4.578,2.319
-0.280,-0.131,0.949,-1.709,3.723,1.526
-0.292,-0.103,0.919,-2.625,2.441,0.916
-0.308,-0.074,0.881,-3.174,1.404,0.854
-0.322,-0.047,0.850,-3.113,0.916,1.343
-0.333,-0.029,0.837,-2.075,2.014,2.502
-0.324,-0.038,0.856,-0.427,3.540,4.150
-0.331,-0.073,0.847,0.854,5.005,5.798
-0.320,-0.105,0.856,1.709,7.324,7.263
-0.309,-0.126,0.879,1.770,9.583,7.629
-0.301,-0.139,0.907,2.075,11.414,7.446
-0.297,-0.141,0.944,2.869,12.695,6.775
-0.294,-0.141,0.967,2.869,13.062,6.348
-0.293,-0.145,0.982,2.258,12.390,6.165
-0.296,-0.148,0.987,1.587,11.292,6.042
-0.309,-0.151,0.978,1.404,10.132,5.859
-0.325,-0.155,0.959,2.075,9.094,5.066
-0.343,-0.156,0.949,2.991,8.545,4.639
-0.363,-0.156,0.951,2.930,8.911,4.761
-0.388,-0.149,0.973,2.991,9.705,4.944
-0.401,-0.142,1.007,4.150,10.437,5.066
-0.406,-0.190,1.029,7.202,10.925,5.249
-0.409,-0.206,1.043,7.385,10.376,5.371
-0.418,-0.215,1.077,2.808,9.827,5.371
-0.414,-0.227,1.105,2.930,8.850,5.310
-0.405,-0.213,1.117,4.089,7.263,4.761
-0.393,-0.194,1.107,4.211,4.639,4.333
-0.396,-0.154,1.086,4.272,1.587,4.028
-0.387,-0.141,1.055,6.104,-0.488,5.493
-0.364,-0.147,1.043,8.118,-0.549,7.812
-0.321,-0.195,1.047,9.460,-0.122,10.803
-0.284,-0.259,1.075,11.230,0.305,12.451
-0.253,-0.346,1.104,10.559,0.244,12.878
-0.227,-0.422,1.121,8.606,-0.916,11.597
-0.203,-0.437,1.117,5.310,-2.502,7.324
-0.203,-0.377,1.072,1.648,-5.981,1.526
-0.227,-0.279,0.996,0.000,-10.986,-3.235
-0.254,-0.191,0.919,-0.061,-14.709,-6.165
-0.278,-0.131,0.874,0.122,-15.869,-7.324
-0.298,-0.095,0.825,0.366,-15.564,-7.507
-0.310,-0.095,0.813,1.343,-13.977,-6.714
-0.320,-0.102,0.780,1.221,-12.024,-6.104
-0.327,-0.091,0.764,-0.854,-9.644,-5.371
-0.335,-0.073,0.771,-4.761,-6.653,-4.089
-0.342,-0.038,0.785,-8.057,-3.662,-3.174
-0.345,-0.020,0.811,-6.287,-1.465,-2.869
-0.340,-0.028,0.841,-5.310,1.282,-1.465
-0.331,-0.037,0.874,-6.836,3.479,0.122
-0.328,-0.067,0.898,-7.996,4.517,2.258
-0.321,-0.098,0.912,-7.874,4.700,3.723
-0.313,-0.122,0.920,-7.324,4.761,4.028
-0.309,-0.127,0.920,-6.226,4.700,3.906
-0.313,-0.114,0.911,-5.432,3.967,3.906
-0.318,-0.100,0.893,-4.150,3.235,4.089
-0.324,-0.092,0.877,-2.441,3.113,4.700
-0.326,-0.097,0.868,-0.854,3.967,5.859
-0.320,-0.107,0.871,1.282,5.005,6.653
-0.319,-0.105,0.883,2.991,6.287,7.019
-0.322,-0.092,0.892,4.089,7.202,7.019
-0.324,-0.079,0.906,5.127,7.629,7.141
-0.333,-0.081,0.917,6.226,8.118,7.751
-0.338,-0.088,0.922,6.836,8.484,8.423
-0.337,-0.103,0.925,7.141,8.362,9.521
-0.340,-0.118,0.943,6.775,8.606,10.620
-0.340,-0.135,0.960,5.493,8.789,11.658
-0.332,-0.151,0.984,4.272,9.094,12.451
-0.328,-0.176,1.009,4.395,9.033,12.390
-0.329,-0.196,1.030,4.578,8.423,11.902
-0.339,-0.204,1.042,3.540,7.263,11.292
-0.346,-0.218,1.031,2.014,5.371,11.230
-0.344,-0.223,1.009,0.793,3.174,10.925
-0.350,-0.211,0.989,-0.366,1.282,10.254
-0.360,-0.193,0.963,-1.160,0.244,9.644
-0.366,-0.181,0.934,-1.099,-0.488,9.216
-0.363,-0.183,0.917,-0.916,-0.549,9.521
-0.350,-0.187,0.911,-1.465,-0.305,9.949
-0.344,-0.186,0.917,-2.197,0.488,10.193
-0.337,-0.183,0.924,-1.953,1.038,10.071
-0.330,-0.185,0.929,-0.916,1.160,9.827
-0.323,-0.184,0.932,-0.427,1.343,9.766
-0.323,-0.179,0.932,-0.488,1.648,9.766
-0.320,-0.174,0.933,-0.305,1.404,9.827
-0.318,-0.166,0.941,0.549,1.221,9.949
-0.318,-0.162,0.949,1.099,1.282,9.888
-0.317,-0.164,0.957,0.916,0.916,9.949
-0.315,-0.165,0.959,0.366,0.366,10.010
-0.315,-0.154,0.954,-0.427,-0.671,9.888
-0.318,-0.133,0.943,-1.160,-1.587,9.888
-0.328,-0.119,0.925,-1.404,-2.136,10.010
-0.335,-0.110,0.908,-1.038,-2.319,10.681
-0.343,-0.104,0.893,-0.549,-2.258,11.353
-0.342,-0.106,0.886,-0.183,-2.075,11.841
-0.340,-0.103,0.881,-0.122,-1.709,12.268
-0.342,-0.076,0.880,-0.488,-1.099,12.634
-0.348,-0.054,0.882,-0.793,-0.061,13.367
-0.352,-0.045,0.888,-0.854,0.916,14.709
-0.359,-0.044,0.894,-1.160,2.075,16.052
-0.364,-0.051,0.898,-1.221,3.235,17.334
-0.363,-0.062,0.905,-0.671,4.456,18.738
-0.357,-0.070,0.926,-0.732,5.859,19.836
-0.351,-0.067,0.963,-1.160,7.263,20.325
-0.347,-0.074,0.998,-1.221,7.996,20.752
-0.346,-0.082,1.019,-1.099,7.446,21.301
-0.350,-0.081,1.022,-1.465,6.104,21.667
-0.362,-0.083,1.013,-2.197,4.517,22.034
-0.371,-0.096,0.998,-2.747,2.686,22.644
-0.380,-0.099,0.973,-3.235,1.465,22.827
-0.393,-0.086,0.955,-3.418,0.671,22.766
-0.401,-0.077,0.941,-2.808,0.061,23.010
-0.401,-0.075,0.932,-2.136,0.305,23.682
-0.398,-0.070,0.929,-2.380,0.671,24.353
-0.395,-0.068,0.931,-2.808,1.160,25.452
-0.391,-0.077,0.933,-2.808,1.343,26.978
-0.383,-0.102,0.937,-2.991,1.343,28.381
-0.371,-0.125,0.949,-3.418,1.770,29.297
-0.358,-0.137,0.966,-3.540,1.953,29.419
-0.348,-0.141,0.981,-3.418,1.587,29.114
-0.348,-0.135,0.982,-3.723,0.305,28.687
-0.351,-0.132,0.961,-4.272,-1.282,28.870
-0.356,-0.132,0.932,-4.578,-2.258,29.480
-0.362,-0.130,0.904,-4.517,-2.686,29.602
-0.370,-0.129,0.883,-3.723,-2.625,29.663
-0.374,-0.127,0.863,-2.991,-2.258,29.663
-0.372,-0.113,0.851,-3.418,-1.831,29.724
-0.370,-0.102,0.852,-4.150,-0.793,30.029
-0.366,-0.100,0.858,-4.517,0.671,30.273
-0.361,-0.101,0.870,-4.761,1.953,30.334
-0.354,-0.100,0.882,-5.249,2.930,30.457
-0.352,-0.094,0.892,-5.920,3.418,30.579
-0.354,-0.082,0.901,-6.470,3.662,30.762
-0.358,-0.077,0.906,-6.592,3.540,31.006
-0.361,-0.077,0.903,-6.226,3.235,31.494
-0.368,-0.075,0.903,-5.798,3.235,31.982
-0.371,-0.074,0.904,-5.798,3.357,32.593
-0.375,-0.084,0.913,-5.859,3.601,33.508
-0.375,-0.104,0.915,-5.798,3.845,33.997
-0.375,-0.114,0.915,-5.676,3.601,34.180
-0.384,-0.114,0.913,-5.981,3.174,33.997
-0.395,-0.114,0.916,-5.676,2.991,33.936
-0.402,-0.123,0.911,-5.066,2.686,34.180
-0.404,-0.131,0.906,-4.578,1.892,34.363
-0.411,-0.139,0.897,-4.456,1.343,34.546
-0.418,-0.149,0.887,-3.784,1.099,34.424
-0.418,-0.151,0.876,-3.174,1.038,34.302
-0.415,-0.148,0.881,-2.686,1.709,34.180
-0.408,-0.140,0.894,-2.075,2.563,34.180
-0.403,-0.139,0.919,-1.099,3.113,34.241
-0.401,-0.151,0.947,0.183,2.991,34.485
-0.399,-0.175,0.965,0.854,2.319,34.668
-0.401,-0.196,0.974,0.305,0.854,34.485
-0.405,-0.212,0.967,-0.916,-0.671,33.875
-0.415,-0.215,0.944,-1.709,-2.075,32.837
-0.426,-0.202,0.919,-2.380,-3.235,31.250
-0.440,-0.184,0.905,-2.747,-4.089,30.212
-0.451,-0.170,0.896,-2.869,-4.028,29.297
-0.461,-0.168,0.902,-2.563,-3.479,28.809
-0.451,-0.193,0.918,-1.404,-2.563,28.931
-0.462,-0.212,0.933,-1.282,-2.258,28.442
-0.467,-0.206,0.933,-1.648,-2.502,27.344
-0.474,-0.184,0.937,-0.732,-2.625,25.940
-0.490,-0.161,0.943,-0.122,-2.625,25.208
-0.503,-0.156,0.956,0.488,-2.747,25.269
-0.499,-0.177,0.974,2.014,-2.686,25.879
-0.497,-0.218,0.986,3.174,-2.991,25.940
-0.503,-0.251,0.983,4.028,-4.089,25.146
-0.512,-0.253,0.974,3.906,-5.188,23.682
-0.513,-0.239,0.970,4.089,-5.554,21.973
-0.507,-0.231,0.981,5.066,-5.188,20.935
-0.502,-0.228,0.994,6.104,-4.211,20.325
-0.490,-0.216,0.999,6.348,-3.967,19.836
-0.464,-0.208,1.017,5.981,-3.174,20.081
-0.447,-0.212,1.048,4.944,-2.625,20.996
-0.428,-0.237,1.068,4.089,-2.258,21.362
-0.424,-0.273,1.076,4.700,-2.197,21.057
-0.430,-0.312,1.061,5.432,-2.441,19.958
-0.437,-0.339,1.033,4.456,-2.747,18.127
-0.451,-0.356,1.004,2.991,-2.625,15.320
-0.458,-0.348,0.975,1.526,-2.075,11.963
-0.460,-0.312,0.957,0.671,-1.099,8.789
-0.476,-0.283,0.966,0.671,0.793,6.104
-0.449,-0.261,0.978,0.793,3.662,4.517
-0.416,-0.233,1.010,-0.427,6.287,4.272
-0.395,-0.220,1.042,-0.610,7.507,4.822
-0.361,-0.239,1.054,1.038,7.141,5.981
-0.317,-0.291,1.066,2.258,6.226,7.263
-0.280,-0.342,1.078,2.563,5.066,7.751
-0.248,-0.382,1.084,2.014,3.113,7.263
-0.224,-0.415,1.086,1.526,0.183,5.493
-0.206,-0.433,1.072,1.404,-2.502,2.441
-0.177,-0.426,1.059,0.549,-5.676,-0.549
-0.176,-0.363,1.011,-2.014,-10.742,-3.967
-0.185,-0.301,0.945,-2.869,-15.930,-6.165
-0.191,-0.264,0.877,-2.563,-19.226,-7.324
-0.198,-0.227,0.818,-2.563,-20.325,-7.507
-0.207,-0.202,0.771,-2.380,-20.081,-6.958
-0.215,-0.189,0.742,-0.854,-18.677,-6.165
-0.230,-0.184,0.732,0.305,-16.174,-4.944
-0.233,-0.176,0.737,0.183,-13.062,-3.784
-0.239,-0.162,0.753,-0.244,-9.705,-2.502
-0.253,-0.160,0.764,0.366,-6.775,-1.221
-0.271,-0.138,0.772,0.549,-3.967,-0.732
-0.289,-0.126,0.780,0.732,-2.075,0.366
-0.310,-0.110,0.800,0.488,0.000,2.136
-0.326,-0.114,0.828,0.427,2.686,3.967
-0.329,-0.135,0.858,0.061,4.639,5.859
-0.339,-0.157,0.885,-0.732,6.165,6.958
-0.347,-0.181,0.905,-1.282,6.836,7.324
-0.352,-0.211,0.909,-1.160,6.653,7.507
-0.365,-0.218,0.903,-1.648,5.981,7.080
-0.384,-0.209,0.896,-2.258,5.127,5.676
-0.386,-0.203,0.891,-1.343,4.211,4.639
-0.383,-0.194,0.878,-0.549,3.235,3.601
-0.384,-0.175,0.854,-0.977,1.709,2.747
-0.381,-0.151,0.821,-1.282,-0.305,2.686
-0.375,-0.131,0.776,-0.977,-1.465,3.357
-0.376,-0.110,0.738,-0.549,-1.831,4.333
-0.372,-0.095,0.719,0.000,-0.916,6.042
-0.364,-0.109,0.723,0.977,1.343,8.240
-0.342,-0.151,0.748,1.892,4.028,10.681
-0.320,-0.199,0.786,2.014,6.287,12.512
-0.299,-0.229,0.817,1.282,7.935,12.817
-0.287,-0.233,0.839,0.122,8.545,12.146
-0.293,-0.229,0.849,-0.793,8.484,11.292
-0.297,-0.225,0.845,-0.854,8.057,10.254
-0.313,-0.202,0.850,-0.610,7.751,8.972
-0.342,-0.162,0.858,-0.366,7.751,8.118
-0.359,-0.136,0.873,-2.014,7.324,8.789
-0.367,-0.130,0.863,-4.395,6.042,10.742
-0.393,-0.116,0.877,-5.920,5.432,12.024
-0.430,-0.100,0.853,-5.371,5.310,13.184
-0.449,-0.111,0.852,-4.272,6.470,14.832
-0.466,-0.131,0.855,-4.944,7.629,16.846
-0.470,-0.140,0.871,-5.981,8.362,18.616
-0.477,-0.144,0.885,-5.859,8.728,19.287
-0.480,-0.146,0.909,-5.798,8.545,19.714
-0.481,-0.148,0.933,-5.493,7.935,20.264
-0.480,-0.144,0.954,-5.493,6.714,21.057
-0.475,-0.144,0.977,-5.981,5.554,22.034
-0.465,-0.143,1.000,-5.676,4.150,22.827
-0.452,-0.143,1.025,-4.883,2.625,23.437
-0.447,-0.152,1.049,-3.845,1.099,24.109
-0.436,-0.167,1.085,-1.404,-0.427,24.902
-0.413,-0.209,1.115,-0.854,-2.136,25.574
-0.420,-0.237,1.118,-2.075,-5.005,25.757
-0.409,-0.258,1.094,-2.380,-8.911,25.146
-0.432,-0.231,1.057,-3.967,-12.451,24.109
-0.472,-0.166,1.028,-6.287,-15.076,22.888
-0.483,-0.121,1.000,-6.042,-15.747,23.254
-0.500,-0.098,0.979,-5.859,-14.893,25.269
-0.506,-0.094,0.944,-6.287,-13.672,28.076
-0.502,-0.090,0.896,-5.005,-11.292,30.701
-0.488,-0.109,0.865,-1.404,-6.958,33.264
-0.441,-0.149,0.884,2.441,-0.793,36.133
-0.379,-0.197,0.961,4.517,7.141,38.757
-0.282,-0.238,1.082,5.432,14.709,40.771
-0.198,-0.277,1.241,4.578,19.775,41.809
-0.146,-0.349,1.380,3.723,21.729,41.870
-0.095,-0.448,1.522,3.723,20.508,40.283
-0.046,-0.525,1.599,2.380,14.832,36.438
-0.033,-0.527,1.589,-2.258,4.089,30.396
-0.090,-0.408,1.464,-10.864,-10.559,23.132
-0.160,-0.202,1.222,-18.433,-28.015,17.578
-0.230,-0.099,0.995,-15.686,-39.795,15.381
-0.281,-0.004,0.787,-11.780,-43.396,14.160
-0.345,0.053,0.649,-7.019,-39.917,13.550
-0.371,0.055,0.602,-0.793,-30.701,15.381
-0.382,0.029,0.607,4.089,-19.104,19.165
-0.363,-0.010,0.676,-0.977,-7.996,25.269
-0.312,-0.016,0.832,-8.789,2.991,30.151
-0.265,-0.101,1.035,-2.380,13.672,31.006
-0.230,-0.219,1.167,2.014,18.372,31.067
-0.219,-0.258,1.250,-1.953,16.602,28.564
-0.225,-0.276,1.245,-6.958,9.399,26.489
-0.241,-0.259,1.178,-11.902,0.793,25.085
-0.259,-0.212,1.085,-14.587,-6.165,22.217
-0.281,-0.163,1.001,-13.550,-11.475,19.592
-0.299,-0.150,0.908,-9.460,-14.893,18.127
-0.312,-0.136,0.827,-7.263,-16.846,17.273
-0.318,-0.117,0.778,-7.202,-17.456,17.456
-0.313,-0.098,0.754,-7.507,-17.151,18.494
-0.313,-0.079,0.727,-6.287,-16.418,19.287
-0.319,-0.070,0.685,-4.333,-15.137,20.142
-0.318,-0.091,0.642,-2.686,-13.855,20.935
-0.329,-0.096,0.586,0.366,-11.719,21.240
-0.341,-0.109,0.557,2.258,-8.606,21.790
-0.344,-0.127,0.555,2.747,-4.517,22.522
-0.339,-0.147,0.580,3.418,-0.671,22.888
-0.320,-0.169,0.620,4.761,3.662,22.583
-0.306,-0.204,0.672,6.531,7.263,22.156
-0.299,-0.236,0.729,6.836,9.583,21.240
-0.295,-0.255,0.776,5.310,10.681,19.836
-0.302,-0.262,0.823,3.967,10.498,18.005
-0.309,-0.275,0.851,3.174,9.766,16.174
-0.323,-0.274,0.857,2.502,8.606,13.916
-0.339,-0.258,0.855,1.099,6.775,11.292
-0.362,-0.219,0.842,-0.549,4.517,8.789
-0.386,-0.188,0.832,-1.160,3.113,7.202
-0.410,-0.173,0.821,-1.221,2.563,6.226
-0.427,-0.165,0.805,-1.404,2.075,5.798
-0.445,-0.169,0.788,-0.610,1.404,5.371
-0.458,-0.179,0.768,0.488,0.977,5.249
-0.474,-0.193,0.749,1.526,1.404,4.700
-0.479,-0.206,0.739,2.197,2.625,3.906
-0.479,-0.224,0.744,3.235,4.578,3.052
-0.468,-0.232,0.776,4.578,6.836,1.953
-0.458,-0.229,0.823,5.920,9.399,0.549
-0.435,-0.210,0.879,6.348,11.536,-0.916
-0.419,-0.182,0.940,6.531,12.878,-1.709
-0.403,-0.156,1.001,7.446,13.428,-2.075
-0.403,-0.146,1.056,8.667,13.184,-1.709
-0.399,-0.191,1.112,10.559,12.573,-0.793
-0.391,-0.262,1.155,11.841,11.292,0.000
-0.396,-0.323,1.183,10.254,7.996,-0.366
-0.417,-0.360,1.163,8.423,3.113,-2.319
-0.431,-0.369,1.110,6.775,-1.831,-5.493
-0.479,-0.300,1.045,2.808,-6.042,-9.888
-0.545,-0.193,0.988,-0.122,-9.216,-14.160
-0.593,-0.130,0.947,1.953,-9.644,-16.113
-0.651,-0.092,0.947,3.967,-7.385,-15.747
-0.690,-0.073,0.967,6.165,-3.784,-13.977
-0.677,-0.102,0.999,10.803,-0.122,-10.498
-0.629,-0.158,1.045,15.747,4.395,-6.287
-0.569,-0.187,1.100,17.395,8.667,-3.540
-0.495,-0.180,1.151,18.127,11.475,-2.014
-0.405,-0.199,1.185,19.897,12.756,-0.610
-0.301,-0.265,1.214,21.484,13.977,1.770
-0.211,-0.342,1.246,18.738,14.404,3.784
-0.127,-0.412,1.288,13.794,13.672,4.333
-0.075,-0.519,1.300,9.216,11.047,2.686
-0.055,-0.583,1.304,3.357,6.287,-0.793
-0.067,-0.610,1.237,0.793,-0.854,-6.836
-0.106,-0.530,1.093,-3.174,-9.216,-15.259
-0.172,-0.389,0.923,-7.629,-17.395,-22.156
-0.225,-0.252,0.769,-8.179,-21.790,-25.574
-0.285,-0.147,0.624,-5.859,-22.156,-25.879
-0.331,-0.077,0.533,-2.747,-18.005,-23.560
-0.348,-0.088,0.491,1.465,-9.888,-18.188
-0.343,-0.161,0.497,6.226,0.244,-11.902
-0.313,-0.257,0.583,9.949,12.573,-6.714
-0.276,-0.344,0.748,9.216,25.085,-4.333
-0.237,-0.418,0.915,8.850,33.264,-4.456
-0.205,-0.436,1.041,8.118,36.377,-7.141
-0.199,-0.423,1.143,5.798,35.156,-10.437
-0.202,-0.383,1.178,2.991,30.090,-14.099
-0.213,-0.327,1.166,0.427,22.827,-16.968
-0.247,-0.275,1.107,-1.221,15.076,-19.226
-0.286,-0.232,1.023,-1.221,8.606,-20.996
-0.323,-0.202,0.932,-0.610,3.479,-22.278
-0.344,-0.183,0.841,0.061,0.671,-22.522
-0.361,-0.170,0.782,0.244,-0.366,-22.522
-0.364,-0.149,0.749,-0.244,-0.122,-22.400
-0.372,-0.123,0.715,0.183,1.099,-21.851
-0.364,-0.111,0.704,2.319,3.357,-20.813
-0.337,-0.112,0.732,3.662,6.470,-19.226
-0.306,-0.115,0.793,3.906,9.583,-17.456
-0.275,-0.122,0.862,4.333,11.536,-16.296
-0.262,-0.150,0.908,4.395,11.169,-15.015
-0.254,-0.182,0.912,4.150,8.545,-13.672
-0.257,-0.182,0.887,2.686,4.822,-12.878
-0.265,-0.162,0.855,0.671,2.136,-12.573
-0.270,-0.141,0.833,0.183,1.221,-11.780
-0.268,-0.120,0.833,0.488,1.465,-11.108
-0.265,-0.100,0.854,0.366,2.319,-9.705
-0.272,-0.102,0.874,-0.183,2.197,-7.874
-0.278,-0.128,0.875,-0.854,1.221,-5.615
-0.294,-0.150,0.850,-2.319,-0.854,-4.395
-0.314,-0.148,0.808,-4.761,-2.258,-4.089
-0.339,-0.125,0.765,-6.165,-3.052,-4.272
-0.373,-0.103,0.731,-6.409,-2.930,-4.272
-0.398,-0.088,0.710,-5.676,-2.136,-3.784
-0.403,-0.066,0.715,-4.883,-0.366,-2.808
-0.407,-0.039,0.747,-4.517,2.319,-1.526
-0.406,-0.027,0.779,-3.845,4.272,-0.183
-0.403,-0.035,0.800,-2.014,5.127,1.770
-0.402,-0.043,0.815,-0.488,5.249,3.784
-0.402,-0.044,0.825,-0.244,5.188,5.859
-0.402,-0.051,0.829,0.549,5.371,7.935
-0.408,-0.062,0.838,1.770,5.920,9.827
-0.410,-0.069,0.853,2.869,6.653,11.658
-0.404,-0.084,0.894,3.662,8.118,13.611
-0.404,-0.115,0.953,4.700,10.254,15.564
-0.396,-0.151,1.042,5.493,12.329,17.212
-0.369,-0.196,1.146,5.066,13.306,17.822
-0.362,-0.206,1.235,3.357,12.024,17.578
-0.388,-0.168,1.274,0.488,7.385,15.930
-0.419,-0.121,1.243,-1.404,0.366,14.832
-0.483,-0.049,1.150,-3.601,-6.714,14.648
-0.525,0.008,1.048,-3.357,-11.719,16.113
-0.557,0.026,0.981,0.122,-12.634,19.287
-0.583,0.010,0.915,5.432,-10.132,22.522
-0.575,0.008,0.850,6.104,-5.676,26.550
-0.550,-0.053,0.876,8.911,1.587,32.410
-0.465,-0.154,0.979,14.648,11.780,36.926
-0.357,-0.214,1.169,17.334,21.484,38.635
-0.277,-0.273,1.363,16.357,27.954,38.940
-0.188,-0.342,1.552,15.625,29.480,38.391
-0.114,-0.378,1.678,11.108,24.780,36.133
-0.098,-0.361,1.730,3.784,13.733,32.471
-0.107,-0.328,1.670,2.869,-0.854,28.015
-0.113,-0.266,1.504,1.953,-16.968,23.499
-0.167,-0.166,1.277,-2.869,-32.227,20.142
-0.231,-0.101,1.068,-4.944,-42.358,19.226
-0.288,-0.056,0.850,-4.333,-47.424,19.592
-0.339,-0.030,0.690,-3.967,-46.509,20.081
-0.364,-0.025,0.628,-3.052,-38.635,20.996
-0.360,-0.041,0.639,-1.343,-26.367,22.827
-0.337,-0.072,0.713,-0.549,-12.695,24.414
-0.303,-0.095,0.881,-3.418,-0.977,25.879
-0.280,-0.115,1.041,-5.310,6.836,26.428
-0.245,-0.142,1.137,-4.944,9.277,26.611
-0.219,-0.171,1.203,-5.798,7.385,26.611
-0.216,-0.173,1.205,-7.935,2.686,25.879
-0.232,-0.166,1.146,-8.362,-3.357,25.146
-0.256,-0.182,1.049,-6.775,-9.460,24.780
-0.284,-0.192,0.949,-4.333,-14.099,24.597
-0.299,-0.202,0.859,-2.808,-16.846,23.560
-0.311,-0.215,0.775,-2.136,-18.188,22.339
-0.324,-0.219,0.707,-1.160,-18.677,20.874
-0.331,-0.203,0.650,-0.183,-18.311,18.738
-0.344,-0.170,0.570,-1.221,-17.578,17.029
-0.358,-0.133,0.504,-2.136,-15.137,16.418
-0.375,-0.103,0.463,-1.831,-10.620,16.357
-0.371,-0.092,0.464,-0.305,-4.578,16.968
-0.354,-0.129,0.519,1.892,2.380,17.883
-0.327,-0.195,0.600,3.235,8.911,18.494
-0.309,-0.247,0.675,3.235,12.512,17.700
-0.284,-0.277,0.737,1.648,13.245,15.808
-0.275,-0.276,0.768,-1.160,11.414,13.062
-0.290,-0.252,0.767,-2.258,8.850,9.583
-0.308,-0.220,0.744,-1.343,6.714,6.592
-0.325,-0.186,0.725,-1.038,5.188,4.822
-0.338,-0.164,0.712,-1.465,4.211,4.639
-0.344,-0.159,0.718,-1.526,4.028,5.249
-0.360,-0.174,0.729,-1.160,4.333,6.042
-0.371,-0.201,0.730,-0.244,4.944,6.104
-0.382,-0.206,0.723,0.000,5.371,5.127
-0.400,-0.189,0.716,-0.183,6.042,3.723
-0.422,-0.170,0.712,-0.183,7.202,2.747
-0.441,-0.150,0.715,0.488,8.667,2.319
-0.448,-0.136,0.736,1.343,10.193,2.197
-0.452,-0.142,0.775,2.747,12.085,2.502
-0.444,-0.177,0.828,4.395,13.855,2.991
-0.446,-0.214,0.879,4.456,14.465,3.113
-0.439,-0.222,0.910,3.296,13.855,2.563
-0.434,-0.198,0.942,3.845,12.695,1.038
-0.437,-0.172,0.977,6.042,12.085,-0.305
-0.439,-0.163,1.009,8.850,11.719,-0.732
-0.436,-0.177,1.053,11.047,11.597,-0.427
-0.433,-0.217,1.072,11.902,10.315,0.183
-0.445,-0.264,1.065,11.475,7.935,0.916
-0.448,-0.304,1.062,10.132,6.042,0.732
-0.465,-0.325,1.037,8.362,4.333,-0.793
-0.484,-0.308,1.006,7.751,2.869,-3.418
-0.532,-0.259,0.987,5.920,2.014,-6.165
-0.575,-0.217,0.972,4.028,1.892,-8.179
-0.607,-0.208,0.960,4.211,2.930,-8.789
-0.640,-0.198,0.950,3.723,4.578,-8.972
-0.656,-0.149,0.937,4.883,7.263,-9.338
-0.636,-0.116,0.950,9.155,12.146,-7.935
-0.596,-0.109,1.016,13.489,19.287,-4.944
-0.503,-0.155,1.125,17.273,26.611,-1.038
-0.385,-0.244,1.265,19.897,33.203,2.991
-0.282,-0.353,1.367,20.813,37.109,6.042
-0.179,-0.483,1.496,20.813,38.147,7.324
-0.121,-0.573,1.596,17.273,35.278,5.432
-0.091,-0.635,1.605,11.475,27.588,0.916
-0.063,-0.642,1.565,4.639,15.381,-4.272
-0.100,-0.592,1.390,2.197,0.366,-11.658
-0.162,-0.464,1.135,-0.366,-14.282,-19.653
-0.230,-0.326,0.924,-2.808,-23.987,-24.109
-0.292,-0.233,0.734,-2.869,-27.710,-24.658
-0.321,-0.178,0.608,-0.061,-24.841,-23.254
-0.323,-0.196,0.574,5.249,-16.174,-20.020
-0.296,-0.241,0.568,9.705,-5.432,-16.296
-0.281,-0.302,0.624,13.245,5.615,-13.916
-0.238,-0.368,0.748,12.146,17.029,-12.085
-0.201,-0.423,0.911,11.353,25.330,-12.085
-0.159,-0.454,1.052,10.132,28.809,-14.099
-0.145,-0.435,1.127,7.324,27.466,-17.456
-0.138,-0.373,1.155,4.028,22.766,-20.935
-0.147,-0.310,1.125,0.122,15.564,-23.315
-0.191,-0.236,1.061,-4.150,7.935,-24.109
-0.221,-0.193,0.985,-4.089,2.869,-25.146
-0.252,-0.178,0.912,-2.502,0.244,-25.818
-0.277,-0.179,0.861,-2.930,-1.465,-25.574
-0.289,-0.172,0.830,-4.578,-2.136,-25.635
-0.287,-0.148,0.813,-6.348,-2.319,-25.879
-0.298,-0.114,0.796,-7.507,-2.808,-26.489
-0.308,-0.081,0.757,-7.568,-3.601,-26.367
-0.322,-0.046,0.703,-7.446,-4.150,-25.391
-0.324,-0.023,0.674,-7.629,-3.174,-23.560
-0.322,-0.008,0.651,-6.775,-1.526,-21.179
-0.309,-0.025,0.678,-3.906,2.136,-18.066
-0.283,-0.050,0.737,-1.648,6.226,-15.442
-0.259,-0.065,0.807,-0.122,9.216,-13.306
-0.247,-0.074,0.872,0.549,10.010,-11.475
-0.242,-0.082,0.918,0.305,9.033,-9.583
-0.245,-0.095,0.938,-0.244,7.019,-7.874
-0.256,-0.097,0.935,-0.732,4.089,-6.592
-0.276,-0.091,0.907,-0.977,0.916,-5.554
-0.301,-0.086,0.866,-0.488,-1.587,-4.700
-0.323,-0.076,0.826,-0.732,-2.686,-3.601
-0.342,-0.079,0.804,-1.831,-3.235,-2.441
-0.355,-0.083,0.801,-2.747,-3.113,-1.282
-0.369,-0.080,0.800,-3.967,-2.808,-1.038
-0.394,-0.061,0.787,-4.883,-3.174,-0.977
-0.412,-0.044,0.763,-5.188,-3.784,-0.549
-0.418,-0.035,0.758,-4.822,-3.418,0.549
-0.416,-0.026,0.783,-4.395,-2.014,2.075
-0.410,-0.020,0.824,-4.028,-0.305,3.723
-0.412,-0.027,0.865,-3.723,0.732,6.104
-0.407,-0.037,0.889,-3.784,0.854,8.606
-0.384,-0.032,0.910,-3.906,0.549,10.986
-0.378,-0.021,0.946,-3.662,0.610,12.939
-0.381,-0.032,0.984,-2.014,0.854,14.954
-0.379,-0.063,1.020,-0.977,0.793,17.395
-0.375,-0.119,1.044,-1.404,-0.183,19.653
-0.391,-0.173,1.066,-3.662,-1.465,21.362
-0.402,-0.216,1.076,-6.165,-2.380,21.545
-0.390,-0.244,1.079,-7.874,-3.662,20.325
-0.394,-0.190,1.071,-11.719,-5.737,17.517
-0.443,-0.080,1.063,-15.198,-8.057,14.954
-0.476,0.000,1.021,-15.381,-9.949,15.015
-0.499,0.013,0.957,-13.916,-11.353,18.494
-0.532,0.037,0.888,-11.353,-10.864,22.827
-0.547,0.041,0.824,-6.287,-7.935,26.611
-0.528,0.012,0.796,-4.211,-2.930,32.166
-0.493,-0.091,0.857,-0.305,5.371,38.147
-0.406,-0.269,0.967,7.446,15.930,41.809
-0.306,-0.384,1.133,8.728,25.146,41.199
-0.231,-0.454,1.297,5.798,30.396,37.537
-0.187,-0.459,1.448,3.235,30.701,31.982
-0.172,-0.384,1.550,-0.610,25.635,24.231
-0.150,-0.265,1.579,-4.517,15.869,17.883
-0.155,-0.163,1.519,-6.348,2.808,14.771
-0.183,-0.076,1.354,-7.874,-11.353,14.038
-0.220,-0.013,1.132,-9.033,-23.682,15.137
-0.259,0.022,0.935,-9.338,-31.433,16.785
-0.310,0.063,0.731,-8.179,-34.607,18.188
-0.346,0.071,0.583,-4.028,-31.494,20.020
-0.360,0.040,0.542,1.648,-21.240,22.949
-0.344,-0.009,0.584,3.723,-7.385,26.428
-0.309,-0.072,0.752,4.028,7.629,28.687
-0.265,-0.145,0.975,6.287,21.301,29.419
-0.226,-0.193,1.127,6.165,27.283,28.503
-0.218,-0.220,1.227,4.395,26.123,26.489
-0.223,-0.218,1.251,1.648,20.203,24.109
-0.246,-0.190,1.208,-1.526,12.512,21.912
-0.275,-0.160,1.123,-3.357,5.066,20.203
-0.311,-0.139,1.024,-3.662,-0.549,18.982
-0.335,-0.129,0.931,-2.563,-3.845,18.005
-0.351,-0.134,0.851,-0.488,-5.737,17.517
-0.353,-0.138,0.786,1.465,-5.859,17.151
-0.359,-0.139,0.748,3.113,-4.944,16.907
-0.349,-0.158,0.731,4.395,-3.540,16.663
-0.346,-0.175,0.718,4.517,-2.197,16.296
-0.338,-0.188,0.729,4.883,-0.122,15.564
-0.320,-0.204,0.752,4.944,2.441,14.221
-0.314,-0.216,0.769,4.944,3.845,12.451
-0.308,-0.212,0.778,4.761,3.662,10.681
-0.309,-0.209,0.787,4.517,3.174,9.277
-0.305,-0.211,0.796,4.272,2.197,7.996
-0.301,-0.213,0.797,4.211,0.916,7.263
-0.300,-0.211,0.797,4.089,-1.221,6.348
-0.307,-0.202,0.784,4.089,-2.869,5.432
-0.320,-0.191,0.755,4.761,-4.333,4.822
-0.327,-0.197,0.732,5.493,-5.432,4.761
-0.336,-0.195,0.700,5.127,-5.737,4.211
-0.355,-0.183,0.691,5.676,-4.700,3.357
-0.363,-0.176,0.716,6.165,-3.113,2.625
-0.388,-0.170,0.710,5.615,-2.441,2.197
-0.396,-0.188,0.727,5.920,-1.526,1.953
-0.400,-0.198,0.742,5.554,-0.427,1.282
-0.416,-0.183,0.748,4.578,0.122,-0.183
-0.432,-0.173,0.757,5.005,0.061,-1.404
-0.448,-0.174,0.768,5.249,0.366,-2.380
-0.452,-0.164,0.793,5.188,1.526,-3.418
-0.460,-0.151,0.816,5.188,2.625,-3.967
-0.457,-0.149,0.845,5.249,3.418,-4.211
-0.453,-0.151,0.871,6.653,4.211,-4.150
-0.445,-0.137,0.911,7.812,5.432,-3.967
-0.427,-0.136,0.969,9.399,7.080,-3.601
-0.426,-0.171,1.028,12.573,8.118,-2.808
-0.429,-0.225,1.066,14.587,7.385,-2.380
-0.432,-0.273,1.078,14.038,5.798,-2.380
-0.447,-0.318,1.074,11.597,3.479,-3.113
-0.467,-0.320,1.030,8.850,0.488,-5.371
-0.529,-0.270,0.991,6.165,-1.709,-8.667
-0.573,-0.204,0.969,5.737,-1.831,-12.085
-0.623,-0.147,0.981,6.775,-0.183,-13.794
-0.677,-0.078,0.997,7.019,2.502,-13.916
-0.690,-0.036,1.015,9.033,5.859,-12.207
-0.672,-0.045,1.017,13.306,9.155,-8.301
-0.625,-0.069,1.032,17.212,13.184,-4.089
-0.546,-0.108,1.086,20.874,18.250,-0.488
-0.450,-0.210,1.189,25.574,24.902,3.174
-0.337,-0.345,1.285,28.687,30.212,6.104
-0.218,-0.487,1.451,28.564,33.447,7.263
-0.135,-0.574,1.575,23.804,31.677,5.188
-0.109,-0.613,1.593,17.395,23.132,0.305
-0.089,-0.603,1.536,9.827,9.338,-5.066
-0.122,-0.547,1.367,4.639,-5.493,-11.108
-0.178,-0.453,1.124,3.662,-18.738,-17.639
-0.223,-0.346,0.931,1.099,-26.428,-22.278
-0.280,-0.270,0.757,-0.305,-28.748,-24.231
-0.321,-0.229,0.638,1.404,-25.757,-23.682
-0.338,-0.238,0.600,4.456,-18.250,-22.034
-0.338,-0.271,0.583,8.606,-8.545,-20.020
-0.310,-0.302,0.621,10.254,2.258,-18.311
-0.279,-0.329,0.755,7.751,14.160,-17.090
-0.232,-0.381,0.917,5.859,23.071,-16.541
-0.187,-0.413,1.049,4.517,26.733,-17.578
-0.173,-0.396,1.127,1.221,25.024,-20.386
-0.171,-0.355,1.168,-1.587,20.569,-23.499
-0.177,-0.317,1.160,-3.540,14.465,-25.635
-0.202,-0.276,1.096,-6.592,7.080,-27.649
-0.231,-0.223,1.006,-8.179,0.488,-29.419
-0.265,-0.163,0.916,-7.568,-3.601,-31.006
-0.299,-0.119,0.832,-6.165,-6.470,-31.372
-0.318,-0.097,0.761,-4.272,-7.568,-30.884
-0.324,-0.088,0.710,-3.235,-7.263,-30.029
-0.317,-0.062,0.678,-3.540,-6.226,-29.053
-0.321,-0.037,0.647,-3.540,-4.333,-27.893
-0.315,-0.026,0.633,-2.319,-2.075,-26.306
-0.307,-0.021,0.620,-1.282,0.671,-24.841
-0.296,-0.027,0.635,-0.427,4.211,-22.888
-0.275,-0.044,0.673,0.977,8.301,-20.508
-0.257,-0.049,0.730,2.014,11.597,-18.921
-0.250,-0.046,0.783,2.502,13.550,-17.578
-0.245,-0.046,0.828,2.991,13.367,-16.052
-0.240,-0.044,0.860,3.052,12.390,-14.526
-0.247,-0.043,0.877,2.808,10.620,-12.817
-0.261,-0.045,0.868,2.014,8.362,-11.230
-0.276,-0.039,0.848,1.282,5.920,-9.949
-0.298,-0.039,0.814,0.732,3.906,-8.362
-0.317,-0.052,0.777,0.183,2.563,-6.653
-0.348,-0.060,0.744,-0.549,2.258,-5.188
-0.376,-0.048,0.726,-1.526,2.563,-4.517
-0.402,-0.032,0.724,-1.892,3.662,-3.967
-0.412,-0.016,0.735,-1.282,5.127,-2.869
-0.424,-0.006,0.760,-0.549,6.470,-1.526
-0.435,-0.005,0.781,-0.366,7.507,-0.122
-0.437,0.010,0.795,-1.221,7.935,1.770
-0.442,0.038,0.808,-1.770,8.179,3.235
-0.428,0.061,0.824,-0.732,8.667,5.127
-0.422,0.077,0.868,1.343,9.888,7.874
-0.410,0.056,0.931,2.686,11.108,11.658
-0.383,-0.015,0.997,3.601,11.902,15.930
-0.348,-0.107,1.059,3.296,11.292,19.287
-0.305,-0.161,1.075,-0.549,8.972,20.081
-0.337,-0.165,1.073,-6.592,4.333,18.982
-0.353,-0.155,1.017,-8.972,0.061,17.456
-0.411,-0.122,0.966,-10.376,-2.258,16.541
-0.465,-0.050,0.923,-11.902,-2.869,15.503
-0.492,-0.008,0.922,-10.559,-1.465,15.686
-0.501,0.025,0.946,-7.141,1.709,17.273
-0.504,0.068,0.997,-4.211,5.127,19.897
-0.508,0.108,1.024,-3.540,7.080,23.621
-0.518,0.129,1.027,-2.380,7.751,28.015
-0.525,0.105,1.000,0.610,8.911,32.715
-0.509,0.032,0.991,4.883,11.963,37.292
-0.455,-0.080,1.016,6.226,17.090,41.443
-0.366,-0.198,1.087,4.150,22.400,43.762
-0.276,-0.273,1.197,1.343,26.489,43.457
-0.210,-0.290,1.302,-1.343,28.259,40.710
-0.166,-0.332,1.434,-1.526,28.442,37.476
-0.141,-0.359,1.523,-0.732,25.818,33.752
-0.123,-0.374,1.554,-2.136,18.677,29.114
-0.130,-0.364,1.495,-4.456,8.301,24.414
-0.159,-0.264,1.336,-8.179,-3.235,19.165
-0.210,-0.089,1.133,-11.047,-12.817,14.404
-0.255,0.078,0.967,-10.376,-18.372,12.268
-0.300,0.224,0.809,-6.409,-19.165,13.306
-0.340,0.281,0.728,-0.366,-14.587,18.005
-0.311,0.225,0.741,5.615,-5.615,25.696
-0.268,0.111,0.834,10.315,5.188,32.959
-0.214,-0.030,0.983,13.062,15.381,37.476
-0.189,-0.149,1.175,11.108,22.339,39.124
-0.158,-0.229,1.315,8.179,24.292,37.781
-0.153,-0.270,1.396,4.944,20.996,34.546
-0.160,-0.259,1.397,2.258,13.184,30.396
-0.191,-0.197,1.316,-0.244,3.052,25.757
-0.221,-0.131,1.195,-1.709,-6.042,22.888
-0.254,-0.092,1.061,-3.479,-13.916,22.156
-0.289,-0.059,0.927,-3.967,-19.348,22.278
-0.321,-0.053,0.805,-1.343,-22.217,22.583
-0.327,-0.081,0.716,2.319,-22.705,23.621
-0.335,-0.107,0.651,3.845,-20.752,24.414
-0.333,-0.128,0.618,4.761,-16.235,25.085
-0.325,-0.165,0.620,4.944,-10.681,25.452
-0.306,-0.204,0.639,4.944,-5.249,25.146
-0.290,-0.214,0.668,4.761,-1.648,23.865
-0.270,-0.220,0.718,5.127,0.916,22.400
-0.257,-0.242,0.748,4.822,2.380,20.752
-0.252,-0.256,0.766,5.249,2.502,18.616
-0.250,-0.253,0.772,5.432,1.892,15.869
-0.247,-0.239,0.772,4.150,0.732,13.794
-0.265,-0.212,0.778,2.625,-0.671,12.146
-0.277,-0.194,0.770,2.686,-1.953,10.986
-0.287,-0.195,0.755,3.601,-2.563,10.315
-0.310,-0.196,0.736,3.479,-3.052,9.705
-0.330,-0.191,0.726,3.357,-2.930,8.850
-0.342,-0.195,0.718,3.784,-2.380,8.179
-0.364,-0.190,0.722,3.540,-1.770,7.019
-0.376,-0.174,0.728,3.235,-1.099,5.432
-0.388,-0.149,0.750,3.784,-0.122,3.784
-0.401,-0.125,0.776,4.700,1.038,2.625
-0.419,-0.114,0.793,5.493,1.160,2.136
-0.439,-0.134,0.804,6.287,1.038,2.502
-0.447,-0.165,0.804,7.751,0.854,2.991
-0.446,-0.180,0.810,8.240,0.732,2.625
-0.441,-0.176,0.831,8.240,1.648,1.770
-0.432,-0.169,0.882,9.216,3.357,1.038
-0.391,-0.193,0.948,11.230,5.066,1.038
-0.342,-0.203,0.997,10.986,5.310,0.977
-0.356,-0.208,1.067,7.751,2.808,0.610
-0.329,-0.288,1.089,9.277,0.366,0.854
-0.335,-0.354,1.094,9.766,-1.892,0.671
-0.367,-0.326,1.083,6.958,-4.272,-2.258
-0.400,-0.273,1.040,7.080,-7.141,-6.042
-0.430,-0.235,1.002,10.071,-8.728,-8.545
-0.474,-0.216,0.984,10.864,-8.301,-9.705
-0.524,-0.200,0.982,10.315,-6.653,-10.437
-0.554,-0.176,1.002,10.254,-4.761,-11.597
-0.567,-0.118,1.037,9.949,-3.113,-12.634
-0.570,-0.039,1.055,7.996,-2.319,-12.939
-0.537,0.008,1.036,6.653,-2.258,-10.681
-0.459,0.018,1.020,5.798,-1.465,-6.042
-0.373,0.013,1.028,5.005,1.343,-1.221
-0.272,-0.038,1.084,6.409,6.409,3.784
-0.151,-0.157,1.180,9.888,13.184,8.667
-0.088,-0.294,1.287,12.085,19.653,12.146
0.001,-0.429,1.389,8.850,24.170,14.099
0.037,-0.532,1.494,3.052,23.682,13.367
0.059,-0.597,1.511,1.648,18.433,9.216
0.066,-0.613,1.434,-1.587,8.972,2.930
-0.004,-0.536,1.275,-6.653,-1.953,-3.296
-0.096,-0.412,1.083,-8.850,-11.169,-9.399
-0.170,-0.269,0.903,-10.681,-16.418,-13.184
-0.237,-0.151,0.791,-9.766,-15.869,-14.038
-0.275,-0.097,0.755,-5.676,-9.399,-12.573
-0.277,-0.114,0.779,0.183,-0.061,-9.277
-0.241,-0.186,0.856,4.822,10.376,-5.371
-0.200,-0.249,0.989,7.080,19.470,-2.747
-0.164,-0.291,1.124,8.423,24.414,-2.441
-0.127,-0.310,1.239,9.216,25.085,-3.723
-0.111,-0.312,1.309,8.301,21.729,-5.310
-0.104,-0.295,1.317,6.165,15.259,-6.958
-0.114,-0.255,1.275,2.747,7.080,-8.728
-0.143,-0.192,1.192,-0.610,-1.404,-10.620
-0.170,-0.124,1.083,-2.380,-8.911,-12.268
-0.191,-0.064,0.980,-2.502,-14.771,-12.573
-0.226,-0.021,0.880,-2.808,-18.555,-11.963
-0.253,-0.017,0.788,-3.784,-20.447,-9.766
-0.263,-0.026,0.710,-4.395,-20.569,-7.202
-0.273,-0.042,0.662,-5.066,-18.555,-4.944
-0.263,-0.062,0.658,-4.333,-14.465,-3.540
-0.280,-0.082,0.662,-1.892,-9.949,-3.418
-0.251,-0.090,0.692,-2.686,-5.554,-2.930
-0.229,-0.087,0.748,-4.333,-2.319,-1.953
-0.208,-0.084,0.788,-4.822,-1.465,-1.221
-0.204,-0.083,0.804,-4.822,-1.953,-0.610
-0.206,-0.068,0.800,-4.944,-2.686,0.183
-0.209,-0.054,0.781,-4.822,-3.479,1.648
-0.213,-0.049,0.765,-4.395,-3.479,3.845
-0.216,-0.043,0.755,-3.601,-2.747,6.287
-0.216,-0.049,0.753,-2.075,-1.648,8.667
-0.220,-0.074,0.759,-0.549,0.732,11.169
-0.221,-0.104,0.777,0.366,3.723,13.367
-0.217,-0.130,0.803,0.000,6.958,14.893
-0.214,-0.151,0.838,-1.038,10.010,15.808
-0.225,-0.166,0.873,-2.197,12.207,15.930
-0.235,-0.188,0.899,-2.441,13.550,15.808
-0.239,-0.212,0.917,-2.502,14.099,15.320
-0.241,-0.220,0.937,-3.662,13.916,14.526
-0.257,-0.198,0.962,-4.639,13.428,13.245
-0.276,-0.166,0.972,-4.944,12.329,11.841
-0.308,-0.130,0.966,-4.456,10.559,11.169
-0.344,-0.094,0.940,-4.333,8.423,11.658
-0.371,-0.058,0.898,-4.578,6.409,13.367
-0.387,-0.046,0.857,-4.089,5.371,15.747
-0.390,-0.065,0.840,-2.563,6.042,18.433
-0.383,-0.119,0.846,-0.427,7.751,20.935
-0.367,-0.189,0.867,0.610,10.010,23.132
-0.353,-0.246,0.898,0.183,12.146,24.475
-0.344,-0.279,0.937,-0.916,13.306,24.475
-0.339,-0.288,0.986,-1.953,14.343,23.315
-0.327,-0.283,1.035,-2.808,14.648,22.034
-0.323,-0.258,1.094,-3.296,14.099,20.813
-0.323,-0.243,1.132,-3.601,12.085,20.203
-0.324,-0.256,1.147,-3.357,8.789,20.386
-0.324,-0.262,1.149,-3.296,4.578,20.325
-0.328,-0.239,1.128,-3.601,-0.427,19.531
-0.332,-0.195,1.100,-3.540,-4.761,18.738
-0.351,-0.155,1.066,-2.991,-9.338,18.311
-0.366,-0.127,1.026,-2.441,-13.489,18.738
-0.376,-0.111,0.990,-1.831,-16.602,19.897
-0.383,-0.093,0.955,-1.099,-18.677,21.118
-0.389,-0.076,0.908,0.793,-19.836,21.851
-0.377,-0.055,0.859,2.930,-19.470,23.254
-0.382,-0.056,0.811,4.395,-17.883,25.757
-0.371,-0.082,0.772,6.409,-15.320,29.053
-0.333,-0.161,0.750,9.705,-10.254,31.860
-0.288,-0.305,0.767,14.648,-3.662,33.447
-0.225,-0.427,0.846,12.085,3.723,32.837
-0.187,-0.504,0.991,4.089,11.169,29.236
-0.162,-0.528,1.144,-1.282,15.198,23.132
-0.165,-0.518,1.267,-5.005,15.137,15.198
-0.174,-0.450,1.319,-7.996,10.803,7.019
-0.201,-0.350,1.295,-9.460,3.113,0.610
-0.231,-0.229,1.218,-10.559,-5.310,-2.991
-0.267,-0.119,1.117,-10.864,-12.451,-4.639
-0.303,-0.048,1.011,-9.399,-17.822,-4.333
-0.327,-0.009,0.916,-7.263,-20.569,-3.235
-0.334,0.010,0.836,-4.822,-21.301,-2.014
-0.333,0.023,0.775,-2.563,-20.447,-0.732
-0.329,0.037,0.719,-1.038,-17.761,0.732
-0.309,0.056,0.708,-0.488,-13.550,2.686
-0.281,0.084,0.726,-0.610,-7.935,5.493
-0.248,0.070,0.777,0.854,-2.136,8.545
-0.214,-0.006,0.830,3.235,3.235,11.963
-0.194,-0.073,0.882,3.113,7.690,14.160
-0.189,-0.099,0.932,1.099,10.742,14.587
-0.189,-0.105,0.981,-0.122,13.184,13.550
-0.198,-0.118,1.032,0.244,15.198,11.658
-0.206,-0.142,1.085,0.427,16.663,10.010
-0.211,-0.156,1.116,-1.343,16.174,8.118
-0.225,-0.123,1.125,-4.456,13.306,5.554
-0.260,-0.063,1.095,-7.019,9.216,2.747
-0.305,-0.018,1.026,-7.690,5.371,0.977
-0.345,0.001,0.942,-7.751,2.686,1.038
-0.371,-0.003,0.863,-7.690,1.404,2.502
-0.376,-0.037,0.816,-7.141,2.319,4.761
-0.359,-0.071,0.788,-6.226,4.517,6.409
-0.368,-0.059,0.780,-7.568,6.714,6.592
-0.365,-0.058,0.784,-6.409,9.277,6.775
-0.346,-0.100,0.798,-2.625,12.573,8.301
-0.335,-0.116,0.851,-2.625,16.235,9.888
-0.313,-0.130,0.919,-2.991,19.775,10.498
-0.287,-0.157,0.979,-1.770,21.851,11.475
-0.285,-0.155,1.031,-1.892,21.667,11.230
-0.290,-0.141,1.053,-2.014,19.836,10.925
-0.305,-0.144,1.051,-1.282,17.273,11.414
-0.318,-0.164,1.037,-0.305,15.503,12.573
-0.330,-0.186,1.025,-0.122,14.648,13.550
-0.342,-0.203,1.027,-0.061,14.709,13.794
-0.346,-0.197,1.045,-0.549,14.893,13.306
-0.348,-0.175,1.067,-2.197,14.954,12.207
-0.346,-0.141,1.075,-4.272,14.160,11.292
-0.346,-0.099,1.055,-6.470,12.024,11.475
-0.373,-0.073,1.016,-7.812,9.033,12.512
-0.382,-0.098,0.971,-6.714,6.714,14.648
-0.380,-0.134,0.933,-5.432,5.981,16.724
-0.389,-0.155,0.925,-5.676,6.470,17.639
-0.387,-0.194,0.937,-3.540,7.629,18.066
-0.382,-0.233,0.963,-1.587,9.033,18.311
-0.373,-0.245,0.989,-1.526,9.827,17.700
-0.365,-0.228,1.009,-2.014,9.644,16.541
-0.354,-0.205,1.023,-1.709,8.606,15.503
-0.340,-0.199,1.028,-1.221,7.202,14.954
-0.329,-0.176,1.036,-1.160,5.310,15.015
-0.328,-0.158,1.041,-0.244,3.418,15.320
-0.320,-0.173,1.037,1.526,1.587,16.052
-0.312,-0.203,1.027,3.113,-0.366,17.151
-0.308,-0.232,1.007,3.296,-1.892,17.456
-0.305,-0.252,0.988,3.235,-2.869,17.273
-0.299,-0.244,0.969,2.991,-3.662,15.991
-0.298,-0.225,0.958,2.686,-4.272,14.160
-0.289,-0.216,0.951,2.441,-4.700,13.184
-0.279,-0.216,0.943,2.075,-5.249,12.268
-0.276,-0.205,0.924,1.038,-6.226,10.925
-0.278,-0.174,0.898,0.610,-6.958,9.399
-0.281,-0.144,0.879,1.282,-6.836,8.118
-0.289,-0.138,0.867,2.991,-5.859,7.446
-0.292,-0.153,0.871,4.333,-3.906,7.263
-0.284,-0.169,0.887,5.127,-2.258,7.080
-0.273,-0.171,0.911,4.944,-1.099,6.287
-0.272,-0.166,0.936,4.578,0.305,5.249
-0.270,-0.155,0.959,4.272,0.793,3.967
-0.279,-0.147,0.971,3.540,0.549,3.113
-0.290,-0.149,0.969,2.747,0.000,2.625
-0.304,-0.154,0.954,1.953,-0.793,1.953
-0.322,-0.151,0.929,1.404,-1.587,0.977
-0.337,-0.138,0.904,1.099,-1.892,-0.122
-0.359,-0.112,0.883,0.610,-1.343,-1.038
-0.376,-0.081,0.873,0.671,-0.488,-1.831
-0.385,-0.055,0.876,1.526,0.916,-2.380
-0.390,-0.045,0.882,2.258,2.808,-2.075
-0.378,-0.033,0.901,2.747,4.456,-1.343
-0.375,-0.022,0.933,3.662,5.737,-0.671
-0.368,-0.035,0.956,4.761,6.653,0.061
-0.355,-0.067,0.975,6.470,6.958,1.221
-0.345,-0.103,0.993,7.080,6.470,2.380
-0.334,-0.127,1.004,6.775,5.798,2.869
-0.319,-0.137,1.009,6.775,4.883,2.808
-0.310,-0.138,1.007,7.202,3.479,2.380
-0.306,-0.137,1.000,7.874,2.136,1.709
-0.306,-0.143,0.978,8.057,0.549,1.343
-0.305,-0.148,0.953,7.874,-0.427,1.465
-0.300,-0.141,0.931,7.568,-0.977,1.160
-0.304,-0.127,0.912,7.568,-1.343,0.183
-0.316,-0.123,0.883,8.179,-1.282,-0.488
-0.310,-0.129,0.867,9.094,-0.366,-0.488
-0.302,-0.134,0.879,8.606,1.404,-0.549
-0.302,-0.139,0.899,7.568,3.296,-0.732
-0.300,-0.152,0.918,7.263,4.578,-1.099
-0.301,-0.158,0.936,7.324,5.066,-1.770
-0.304,-0.148,0.949,6.470,5.310,-2.563
-0.306,-0.137,0.964,6.104,5.066,-3.357
-0.309,-0.135,0.975,6.104,4.639,-3.601
-0.313,-0.131,0.979,6.042,3.601,-3.906
-0.319,-0.124,0.973,6.042,2.441,-4.395
-0.330,-0.114,0.957,5.920,1.160,-4.700
-0.342,-0.103,0.937,5.859,0.183,-4.639
-0.349,-0.084,0.921,5.981,-0.488,-4.517
-0.354,-0.072,0.907,7.019,-0.549,-4.211
-0.355,-0.081,0.903,8.362,-0.122,-3.662
-0.353,-0.102,0.914,9.277,0.916,-3.052
-0.349,-0.123,0.930,9.644,2.014,-2.747
-0.343,-0.121,0.945,9.949,2.380,-2.991
-0.355,-0.113,0.945,10.681,2.563,-3.418
-0.364,-0.123,0.942,11.902,2.502,-3.479
-0.361,-0.137,0.947,12.207,2.808,-3.235
-0.346,-0.143,0.965,11.536,3.296,-3.174
-0.337,-0.151,0.988,11.536,3.357,-3.479
-0.334,-0.154,1.004,11.536,3.052,-3.967
-0.333,-0.155,1.014,10.742,2.136,-4.395
-0.337,-0.156,1.016,9.277,0.732,-4.822
-0.343,-0.154,1.010,7.629,-0.427,-4.944
-0.343,-0.153,0.996,6.104,-1.709,-5.127
-0.360,-0.125,0.968,5.615,-2.136,-5.798
-0.379,-0.099,0.933,6.531,-2.319,-5.920
-0.378,-0.088,0.913,6.592,-1.953,-4.883
-0.375,-0.094,0.926,6.165,-0.183,-3.296
-0.355,-0.115,0.961,6.348,2.197,-1.465
-0.334,-0.149,0.999,6.531,4.456,-0.427
-0.310,-0.179,1.029,6.592,5.188,0.061
-0.292,-0.187,1.060,6.042,5.127,-0.122
-0.287,-0.194,1.083,5.005,4.639,-0.366
-0.280,-0.211,1.093,5.249,3.113,-0.427
-0.270,-0.226,1.090,5.005,0.793,-0.977
-0.266,-0.222,1.069,4.272,-1.892,-2.014
-0.276,-0.206,1.025,3.418,-4.700,-3.235
-0.287,-0.182,0.961,2.808,-7.629,-4.211
-0.298,-0.149,0.894,2.502,-9.827,-5.005
-0.311,-0.112,0.838,1.953,-10.620,-5.432
-0.318,-0.093,0.799,2.197,-9.705,-5.127
-0.315,-0.099,0.781,2.563,-7.324,-4.211
-0.302,-0.118,0.787,2.747,-4.700,-3.235
-0.284,-0.136,0.807,2.319,-2.441,-2.380
-0.275,-0.149,0.835,1.465,-0.854,-2.197
-0.269,-0.156,0.861,0.488,0.610,-2.686
-0.265,-0.152,0.880,-0.061,1.160,-3.235
-0.279,-0.143,0.892,-0.427,1.099,-3.845
-0.287,-0.137,0.881,-0.671,0.793,-4.028
-0.299,-0.126,0.861,-1.160,0.549,-3.967
-0.317,-0.109,0.836,-1.282,0.732,-3.906
-0.335,-0.100,0.810,-0.854,1.648,-3.723
-0.343,-0.091,0.796,-0.183,3.357,-3.174
-0.343,-0.063,0.806,-0.549,5.981,-2.563
-0.343,-0.033,0.840,-0.366,9.094,-1.770
-0.335,-0.038,0.883,1.587,12.268,-0.488
-0.323,-0.066,0.933,3.601,14.343,1.160
-0.310,-0.104,0.986,3.601,15.503,2.747
-0.298,-0.139,1.025,3.357,15.198,3.540
-0.298,-0.158,1.041,3.540,13.428,3.174
-0.308,-0.159,1.022,3.845,10.498,1.953
-0.317,-0.148,0.987,3.540,7.690,1.221
-0.322,-0.125,0.954,3.235,5.737,0.793
-0.331,-0.113,0.933,3.113,5.310,1.099
-0.334,-0.121,0.936,3.906,6.165,1.648
-0.331,-0.139,0.956,4.517,7.263,2.258
-0.317,-0.156,0.983,4.883,8.423,2.747
-0.310,-0.166,1.016,4.639,8.606,2.808
-0.310,-0.167,1.048,3.967,8.179,2.625
-0.305,-0.163,1.058,3.235,6.836,2.258
-0.311,-0.147,1.045,2.380,4.395,1.770
-0.328,-0.128,1.010,1.770,1.892,1.465
-0.343,-0.120,0.970,2.258,0.061,1.709
-0.349,-0.127,0.938,2.441,-0.916,2.258
-0.354,-0.132,0.921,1.892,-0.305,3.113
-0.355,-0.128,0.915,1.404,0.549,3.418
-0.350,-0.113,0.923,1.099,1.770,3.418
-0.348,-0.108,0.941,0.977,3.113,4.333
-0.339,-0.120,0.957,1.099,4.089,5.188
-0.327,-0.143,0.974,1.282,4.272,5.859
-0.325,-0.159,0.980,1.038,3.906,5.920
-0.320,-0.162,0.975,1.221,3.235,5.188
-0.321,-0.156,0.969,1.587,2.441,4.639
-0.328,-0.152,0.956,1.953,1.831,4.333
-0.332,-0.142,0.935,2.441,1.099,4.150
-0.337,-0.141,0.914,3.052,0.916,4.456
-0.337,-0.145,0.896,2.686,1.282,4.883
-0.335,-0.138,0.888,2.563,2.136,5.249
-0.338,-0.125,0.876,2.625,3.296,5.188
-0.335,-0.108,0.890,1.892,5.188,5.737
-0.333,-0.122,0.925,2.258,7.324,7.385
-0.323,-0.163,0.963,3.052,8.484,8.606
-0.310,-0.198,1.001,2.930,8.728,8.484
-0.299,-0.229,1.032,2.869,8.057,7.629
-0.298,-0.234,1.041,2.197,6.287,5.676
-0.312,-0.208,1.019,0.549,3.235,3.601
-0.330,-0.170,0.975,-0.793,0.061,2.258
-0.340,-0.129,0.932,-0.854,-1.770,1.892
-0.348,-0.106,0.911,0.183,-2.014,2.563
-0.348,-0.110,0.903,1.343,-1.282,3.540
-0.345,-0.128,0.904,2.197,-0.427,4.700
-0.349,-0.152,0.909,2.258,0.549,6.165
-0.340,-0.178,0.920,2.014,1.404,6.897
-0.332,-0.201,0.927,2.136,2.136,7.019
-0.336,-0.207,0.930,2.075,2.563,6.226
-0.346,-0.211,0.919,2.625,2.869,5.005
-0.352,-0.219,0.908,3.418,2.930,4.395
-0.348,-0.221,0.910,3.540,3.052,4.089
-0.343,-0.213,0.924,3.113,3.662,3.357
-0.343,-0.199,0.943,2.930,3.906,2.625
-0.341,-0.203,0.949,2.991,3.784,2.319
-0.347,-0.227,0.934,2.930,3.174,2.625
-0.358,-0.260,0.909,3.113,2.258,2.563
-0.378,-0.295,0.880,3.662,2.319,1.831
-0.396,-0.328,0.855,4.395,3.418,0.427
-0.407,-0.366,0.835,5.371,4.944,-1.099
-0.410,-0.394,0.826,5.310,6.897,-2.563
-0.408,-0.410,0.833,4.333,8.911,-4.578
-0.400,-0.416,0.838,4.150,11.047,-6.958
-0.374,-0.412,0.864,4.761,12.878,-9.277
-0.372,-0.430,0.885,4.944,14.221,-10.742
-0.354,-0.451,0.895,3.662,14.771,-12.146
-0.348,-0.474,0.894,4.150,14.709,-13.794
-0.346,-0.499,0.915,4.028,15.015,-16.174
-0.330,-0.515,0.920,4.211,14.954,-19.287
-0.336,-0.519,0.922,4.272,13.306,-22.400
-0.333,-0.473,0.928,3.540,11.719,-24.963
-0.347,-0.481,0.897,8.362,10.498,-27.039
-0.340,-0.478,0.866,10.132,10.803,-29.053
-0.332,-0.438,0.818,4.028,11.230,-30.518
-0.334,-0.369,0.817,0.305,12.939,-30.334
-0.310,-0.319,0.836,-0.977,16.296,-29.175
-0.287,-0.317,0.926,-1.465,20.447,-26.855
-0.242,-0.301,0.980,0.183,22.644,-25.513
-0.237,-0.314,1.031,3.967,21.790,-25.208
-0.225,-0.348,1.047,7.751,18.921,-26.001
-0.226,-0.371,1.036,9.705,15.747,-27.405
-0.212,-0.328,1.009,9.644,12.817,-30.029
-0.240,-0.232,0.988,7.996,10.498,-32.532
-0.231,-0.142,0.966,5.676,9.583,-32.654
-0.207,-0.048,0.999,3.601,9.583,-30.090
-0.216,0.002,1.055,2.502,9.827,-26.123
-0.203,-0.018,1.090,4.578,8.789,-22.278
-0.176,-0.081,1.121,6.958,6.836,-20.020
-0.169,-0.101,1.112,6.775,4.089,-19.836
-0.160,-0.086,1.071,8.423,1.648,-22.644
-0.179,0.003,1.058,15.015,0.732,-27.710
-0.205,0.083,1.045,22.034,-0.122,-32.410
-0.195,0.212,1.008,26.001,-1.587,-34.424
-0.212,0.326,1.030,28.320,-1.953,-32.837
-0.215,0.353,1.047,28.076,-2.075,-27.527
-0.226,0.303,1.058,27.954,-2.930,-21.057
-0.230,0.228,1.034,28.076,-4.578,-16.724
-0.241,0.178,1.002,25.940,-5.737,-15.442
-0.264,0.165,0.972,21.606,-5.493,-15.869
-0.247,0.254,0.978,17.761,-3.601,-17.517
-0.262,0.409,1.030,13.550,-1.465,-18.982
-0.285,0.496,1.087,11.719,0.244,-16.846
-0.286,0.521,1.102,10.315,-0.122,-11.169
-0.296,0.534,1.109,6.226,-0.916,-4.211
-0.319,0.529,1.087,0.854,-2.014,2.991
-0.324,0.501,1.078,-3.723,-2.747,11.536
-0.325,0.508,1.058,-10.559,-3.967,18.799
-0.340,0.498,1.034,-13.977,-5.127,25.574
-0.324,0.417,1.028,-10.742,-3.723,32.288
-0.306,0.333,1.037,-10.315,-1.221,37.598
-0.282,0.250,1.055,-12.024,0.793,41.382
-0.251,0.187,1.066,-15.137,1.160,43.518
-0.233,0.142,1.054,-20.447,0.061,44.983
-0.193,0.210,1.039,-28.198,-1.465,45.959
-0.190,0.352,1.028,-35.583,-2.502,47.119
-0.199,0.456,1.000,-38.940,-3.235,51.697
-0.192,0.475,0.957,-40.039,-3.357,60.120
-0.193,0.410,0.920,-38.757,-2.808,69.885
-0.181,0.304,0.894,-37.781,-2.075,78.918
-0.164,0.224,0.902,-39.063,-0.549,85.999
-0.148,0.139,0.921,-41.199,1.282,90.332
-0.132,0.083,0.942,-41.382,2.258,91.675
-0.108,0.087,0.942,-41.321,2.441,90.271
-0.104,0.089,0.946,-43.274,2.014,89.050
-0.101,0.111,0.943,-46.387,0.977,89.478
-0.088,0.165,0.957,-50.476,0.000,91.675
-0.061,0.153,0.961,-54.321,-1.099,96.191
-0.067,0.150,0.938,-58.105,-2.502,99.670
-0.067,0.092,0.901,-59.937,-4.028,101.440
-0.104,0.059,0.878,-60.547,-5.188,102.478
-0.105,-0.017,0.854,-58.777,-4.089,103.516
-0.103,-0.080,0.825,-57.983,-1.770,103.516
-0.119,-0.148,0.843,-58.960,2.014,101.563
-0.162,-0.133,0.865,-63.171,3.296,98.999
-0.160,-0.150,0.817,-65.857,3.540,97.107
-0.183,-0.183,0.824,-66.101,7.629,93.445
-0.142,-0.074,0.838,-66.345,11.902,87.463
-0.171,0.129,0.908,-62.012,14.038,82.031
-0.233,0.233,0.954,-53.406,15.930,81.543
-0.240,0.149,0.992,-44.739,18.860,87.219
-0.218,-0.003,1.033,-41.138,20.325,93.933
-0.188,-0.104,1.093,-41.321,20.508,97.351
-0.190,-0.187,1.141,-39.612,20.203,97.351
-0.209,-0.254,1.196,-35.034,19.897,93.994
-0.223,-0.310,1.224,-30.396,18.127,89.111
-0.232,-0.331,1.248,-26.733,15.442,83.801
-0.257,-0.356,1.255,-23.743,12.817,79.590
-0.270,-0.404,1.228,-22.217,10.010,76.050
-0.283,-0.443,1.200,-20.020,7.812,72.388
-0.298,-0.455,1.172,-16.541,6.104,67.566
-0.320,-0.446,1.154,-11.597,5.066,62.561
-0.339,-0.470,1.131,-7.141,4.272,58.044
-0.352,-0.506,1.104,-3.906,3.601,54.321
-0.353,-0.545,1.098,-1.953,3.662,50.842
-0.360,-0.597,1.094,-0.427,3.845,47.058
-0.360,-0.648,1.080,0.061,3.967,42.419
-0.369,-0.670,1.080,1.770,4.272,36.804
-0.354,-0.688,1.104,3.784,4.272,30.884
-0.328,-0.693,1.138,3.906,4.028,24.963
-0.311,-0.687,1.177,3.418,2.258,19.470
-0.303,-0.678,1.194,3.784,-0.793,14.099
-0.304,-0.670,1.184,5.127,-4.578,8.789
-0.310,-0.678,1.150,6.531,-9.094,3.967
-0.312,-0.705,1.102,6.958,-13.123,-0.366
-0.312,-0.692,1.064,7.202,-16.296,-5.615
-0.317,-0.666,1.014,8.484,-19.043,-11.719
-0.315,-0.644,0.974,9.521,-20.508,-17.273
-0.308,-0.606,0.941,9.460,-21.301,-22.888
-0.309,-0.555,0.926,11.108,-21.790,-28.259
-0.307,-0.528,0.900,13.794,-21.912,-32.776
-0.296,-0.513,0.893,14.954,-20.752,-36.743
-0.278,-0.489,0.897,15.259,-19.348,-40.771
-0.273,-0.473,0.914,17.090,-17.944,-45.166
-0.251,-0.450,0.943,18.921,-17.090,-49.438
-0.241,-0.442,0.946,21.545,-16.968,-53.345
-0.234,-0.419,0.936,23.987,-17.761,-57.556
-0.233,-0.394,0.923,26.489,-18.311,-61.523
-0.245,-0.372,0.916,30.701,-18.677,-65.491
-0.240,-0.371,0.894,34.668,-18.494,-69.214
-0.232,-0.382,0.887,36.743,-17.395,-72.876
-0.227,-0.389,0.858,37.903,-15.747,-77.087
-0.219,-0.360,0.851,41.748,-13.489,-82.397
-0.209,-0.292,0.845,45.654,-10.864,-87.158
-0.210,-0.197,0.873,47.180,-7.812,-90.576
-0.197,-0.159,0.931,49.377,-4.456,-91.370
-0.177,-0.187,0.996,52.185,-2.502,-91.064
-0.162,-0.227,1.018,52.490,-2.686,-90.820
-0.163,-0.260,0.989,50.232,-4.456,-91.248
-0.174,-0.268,0.906,46.814,-6.470,-92.285
-0.183,-0.229,0.787,44.617,-7.080,-93.933
-0.201,-0.160,0.713,43.945,-4.822,-96.130
-0.213,-0.088,0.682,45.227,-0.488,-97.961
-0.200,-0.045,0.715,48.523,5.371,-98.999
-0.176,-0.048,0.763,52.490,11.353,-98.877
-0.147,-0.038,0.833,54.443,16.602,-98.755
-0.134,-0.008,0.902,57.495,20.569,-99.609
-0.123,-0.004,0.968,60.486,22.766,-99.731
-0.114,-0.013,0.995,62.073,23.010,-99.487
-0.112,-0.017,1.001,62.866,23.132,-99.670
-0.098,-0.003,1.001,62.988,23.254,-100.220
-0.092,0.024,1.012,57.678,23.499,-100.098
-0.101,0.052,1.014,52.917,23.010,-99.609
-0.097,0.072,0.985,52.002,21.362,-99.487
-0.082,0.128,0.957,54.016,19.287,-99.976
-0.111,0.208,0.947,56.946,18.127,-101.074
-0.115,0.300,0.959,54.565,18.555,-99.792
-0.133,0.351,0.988,47.180,19.958,-93.994
-0.152,0.359,1.010,41.260,20.142,-85.938
-0.170,0.336,1.017,38.208,18.738,-78.491
-0.183,0.302,1.010,34.729,17.151,-72.144
-0.200,0.280,1.006,31.067,16.052,-67.017
-0.215,0.284,1.000,28.076,15.442,-63.232
-0.223,0.328,0.998,26.367,15.747,-60.974
-0.240,0.397,1.013,26.550,16.296,-58.899
-0.255,0.422,1.040,27.283,17.761,-55.359
-0.272,0.439,1.074,26.733,19.531,-50.903
-0.271,0.439,1.120,23.926,21.179,-45.410
-0.268,0.421,1.165,20.630,21.301,-38.940
-0.273,0.390,1.201,18.616,19.714,-33.142
-0.271,0.371,1.221,16.907,16.968,-28.992
-0.274,0.365,1.238,14.709,13.367,-25.452
-0.280,0.364,1.249,12.756,9.399,-22.034
-0.296,0.346,1.253,11.963,5.737,-18.555
-0.298,0.345,1.234,9.705,1.465,-15.320
-0.298,0.333,1.227,6.775,-2.014,-12.085
-0.300,0.339,1.208,4.089,-5.188,-8.911
-0.305,0.350,1.192,1.343,-8.606,-5.554
-0.324,0.343,1.152,0.122,-11.841,-2.319
-0.333,0.312,1.090,-0.122,-14.832,1.465
-0.339,0.278,1.044,-1.038,-16.113,5.676
-0.342,0.254,1.001,-2.869,-16.113,9.644
-0.336,0.229,0.978,-5.127,-14.709,13.245
-0.334,0.201,0.960,-8.057,-12.695,16.418
-0.326,0.178,0.950,-10.986,-10.864,19.409
-0.317,0.172,0.943,-13.672,-9.460,21.973
-0.312,0.173,0.942,-16.113,-7.935,24.048
-0.296,0.167,0.935,-16.907,-6.836,26.001
-0.295,0.150,0.928,-15.869,-5.737,27.710
-0.280,0.151,0.919,-14.771,-4.700,28.870
