ax,ay,az,gx,gy,gz
-0.416,0.920,0.110,4.272,-1.465,5.249
-0.421,0.918,0.109,4.395,-2.258,4.883
-0.425,0.918,0.107,4.456,-2.563,4.700
-0.430,0.919,0.104,4.517,-2.808,4.944
-0.431,0.920,0.104,4.639,-2.808,5.188
-0.432,0.921,0.108,4.456,-2.441,5.554
-0.430,0.920,0.110,4.211,-2.197,6.042
-0.429,0.919,0.113,3.967,-1.892,5.981
-0.426,0.920,0.113,3.662,-1.343,5.920
-0.425,0.920,0.115,3.235,-0.610,5.737
-0.425,0.919,0.115,3.052,-0.122,5.066
-0.425,0.918,0.113,3.113,0.305,4.700
-0.425,0.918,0.112,2.930,0.244,4.333
-0.425,0.915,0.110,3.052,0.244,4.150
-0.422,0.914,0.109,2.991,0.061,4.089
-0.419,0.912,0.110,3.174,0.000,4.089
-0.416,0.910,0.111,3.418,-0.305,3.906
-0.416,0.910,0.112,3.418,-0.732,3.906
-0.416,0.910,0.112,3.540,-1.282,3.723
-0.417,0.910,0.114,3.601,-1.587,3.418
-0.419,0.908,0.115,3.540,-1.648,3.052
-0.425,0.908,0.115,3.723,-1.648,2.686
-0.431,0.908,0.115,3.357,-1.282,2.319
-0.434,0.910,0.114,2.808,-0.671,1.831
-0.437,0.911,0.112,2.441,-0.183,1.831
-0.435,0.911,0.112,2.014,0.977,1.892
-0.432,0.908,0.114,2.075,1.892,2.014
-0.428,0.906,0.115,2.258,2.380,2.075
-0.424,0.903,0.118,2.380,2.563,2.136
-0.424,0.904,0.117,2.502,2.380,2.197
-0.426,0.906,0.114,2.563,2.136,2.014
-0.427,0.907,0.111,2.747,1.709,1.953
-0.430,0.910,0.109,2.930,1.587,1.648
-0.431,0.910,0.107,2.747,1.587,1.587
-0.433,0.910,0.105,2.686,1.709,1.770
-0.433,0.909,0.104,2.625,1.953,1.892
-0.432,0.911,0.108,2.075,2.258,1.892
-0.429,0.913,0.111,1.831,2.319,1.831
-0.425,0.913,0.115,1.648,2.441,1.587
-0.422,0.911,0.116,1.831,2.380,1.343
-0.424,0.910,0.118,2.136,2.075,0.916
-0.427,0.910,0.119,2.563,1.831,0.183
-0.428,0.910,0.116,2.930,1.526,-0.061
-0.432,0.910,0.111,3.357,1.404,-0.366
-0.435,0.909,0.105,3.479,1.465,-0.549
-0.436,0.907,0.102,3.174,1.770,-0.488
-0.440,0.908,0.102,2.930,2.197,-0.549
-0.439,0.906,0.102,3.052,2.380,-0.549
-0.439,0.902,0.102,3.052,2.136,-0.366
-0.438,0.899,0.104,2.869,1.648,-0.244
-0.439,0.899,0.107,2.991,1.221,-0.305
-0.441,0.899,0.112,3.174,0.610,-0.305
-0.441,0.898,0.116,3.113,0.122,-0.122
-0.441,0.896,0.116,3.235,-0.366,-0.122
-0.445,0.894,0.116,3.113,-0.793,0.000
-0.448,0.895,0.116,3.113,-0.732,0.000
-0.448,0.895,0.113,3.113,0.000,0.488
-0.448,0.895,0.108,2.991,0.854,0.916
-0.448,0.895,0.104,2.808,2.075,1.404
-0.448,0.895,0.100,2.380,3.418,1.770
-0.446,0.897,0.098,1.953,4.700,2.014
-0.446,0.897,0.099,1.648,5.310,2.197
-0.444,0.896,0.102,1.404,5.493,2.319
-0.444,0.898,0.104,1.038,5.005,2.258
-0.444,0.903,0.108,0.793,4.028,2.319
-0.444,0.909,0.110,1.038,2.869,2.625
-0.445,0.910,0.113,1.282,1.953,2.808
-0.443,0.909,0.111,2.075,1.038,3.113
-0.441,0.906,0.110,2.808,0.366,3.479
-0.439,0.905,0.110,3.113,0.183,3.601
-0.438,0.903,0.108,3.357,0.305,3.601
-0.436,0.899,0.108,3.662,0.305,3.296
-0.436,0.896,0.105,3.540,0.488,3.113
-0.438,0.896,0.104,3.174,0.732,3.052
-0.441,0.897,0.103,2.747,1.282,2.686
-0.442,0.900,0.102,2.197,1.709,2.686
-0.444,0.903,0.101,1.770,2.075,2.747
-0.444,0.904,0.102,1.831,2.625,2.869
-0.443,0.906,0.103,1.587,3.052,3.174
-0.440,0.904,0.104,1.953,3.174,3.418
-0.437,0.904,0.106,2.319,2.991,3.601
-0.435,0.903,0.109,2.930,2.380,3.601
-0.434,0.901,0.110,3.296,1.343,3.052
-0.435,0.898,0.109,3.967,0.183,2.808
-0.440,0.898,0.109,4.028,-1.038,2.563
-0.445,0.898,0.108,4.089,-1.709,2.441
-0.447,0.897,0.105,4.211,-2.075,2.747
-0.449,0.893,0.102,4.211,-1.770,3.052
-0.449,0.890,0.101,3.784,-1.343,3.540
-0.449,0.888,0.103,3.296,-0.244,4.211
-0.446,0.888,0.101,2.625,1.221,4.639
-0.444,0.889,0.100,2.197,2.686,5.005
-0.445,0.892,0.099,1.953,4.211,5.249
-0.442,0.895,0.099,1.465,5.127,5.432
-0.439,0.899,0.101,1.404,5.371,5.676
-0.438,0.902,0.101,1.526,5.005,5.920
-0.434,0.905,0.104,1.526,3.906,6.042
-0.430,0.908,0.107,1.709,2.319,6.042
-0.428,0.910,0.110,2.014,0.549,5.920
-0.427,0.911,0.111,2.563,-0.854,5.737
-0.427,0.910,0.113,3.296,-1.709,5.676
-0.429,0.906,0.114,3.845,-2.075,5.371
-0.430,0.904,0.113,3.967,-2.014,5.066
-0.435,0.903,0.111,3.967,-1.526,4.822
-0.439,0.902,0.109,4.028,-0.610,4.761
-0.441,0.901,0.106,3.418,0.244,4.822
-0.442,0.905,0.104,2.869,1.465,5.066
-0.440,0.907,0.101,2.380,2.869,5.310
-0.437,0.910,0.101,1.953,3.967,5.798
-0.432,0.910,0.103,1.831,4.822,6.348
-0.426,0.909,0.104,1.587,5.066,6.531
-0.422,0.910,0.109,1.587,4.700,6.287
-0.420,0.913,0.113,1.831,3.723,5.859
-0.421,0.915,0.113,2.075,2.625,5.371
-0.422,0.913,0.113,2.747,1.282,4.944
-0.423,0.911,0.110,3.296,0.244,4.761
-0.426,0.909,0.105,3.479,-0.427,4.578
-0.428,0.910,0.104,3.479,-0.244,4.517
-0.429,0.909,0.102,3.479,0.122,4.456
-0.430,0.910,0.101,3.174,0.732,4.517
-0.434,0.913,0.103,2.625,1.526,4.517
-0.435,0.919,0.105,2.197,2.197,4.395
-0.433,0.922,0.106,2.014,2.869,4.395
-0.428,0.923,0.107,2.075,3.235,4.272
-0.423,0.919,0.107,2.380,3.479,4.333
-0.419,0.913,0.109,2.502,3.479,4.272
-0.417,0.909,0.108,2.441,3.052,3.601
-0.418,0.908,0.108,2.563,2.563,3.174
-0.420,0.910,0.106,2.563,2.075,2.625
-0.424,0.913,0.105,2.747,1.587,2.258
-0.428,0.915,0.103,3.052,1.160,2.014
-0.431,0.917,0.103,3.479,1.099,1.892
-0.434,0.915,0.104,3.662,0.854,1.892
-0.434,0.912,0.105,3.723,0.549,1.709
-0.437,0.910,0.107,3.540,0.427,1.770
-0.440,0.907,0.108,3.418,0.549,1.526
-0.441,0.904,0.106,3.235,0.854,1.465
-0.443,0.902,0.103,2.869,1.526,1.465
-0.444,0.903,0.099,2.747,2.502,1.770
-0.442,0.902,0.097,2.258,3.601,2.319
-0.439,0.902,0.096,1.892,4.578,2.686
-0.437,0.903,0.099,1.892,5.188,2.930
-0.433,0.904,0.101,1.892,5.005,3.113
-0.430,0.906,0.104,1.892,4.272,2.869
-0.429,0.907,0.109,2.319,3.113,2.625
-0.430,0.908,0.114,2.808,1.709,2.136
-0.434,0.908,0.114,3.418,0.488,1.587
-0.438,0.904,0.111,3.601,-0.610,1.404
-0.444,0.903,0.106,3.967,-1.099,1.465
-0.449,0.901,0.103,3.784,-0.916,1.648
-0.453,0.901,0.099,3.418,-0.122,1.892
-0.456,0.901,0.097,2.991,1.099,2.197
-0.454,0.900,0.097,2.563,2.808,2.930
-0.450,0.900,0.099,2.197,4.211,3.418
-0.443,0.900,0.101,1.770,5.249,3.662
-0.438,0.900,0.104,1.587,5.676,4.028
-0.435,0.901,0.103,1.587,5.493,4.028
-0.435,0.900,0.103,1.770,4.944,3.723
-0.434,0.899,0.103,2.075,4.028,3.540
-0.435,0.899,0.102,2.625,2.869,3.357
-0.439,0.902,0.100,2.380,1.404,2.930
-0.443,0.908,0.097,2.502,0.305,2.808
-0.445,0.910,0.098,2.625,-0.061,3.052
-0.443,0.907,0.099,2.808,0.061,3.418
-0.442,0.904,0.102,2.991,0.122,3.784
-0.446,0.905,0.104,2.869,0.671,3.662
-0.447,0.908,0.104,2.686,1.343,3.479
-0.449,0.909,0.103,2.502,1.953,3.723
-0.448,0.908,0.102,2.563,2.441,3.784
-0.448,0.911,0.099,2.197,2.869,3.845
-0.444,0.913,0.096,1.892,3.235,4.272
-0.441,0.911,0.094,1.770,3.662,4.578
-0.435,0.907,0.095,1.648,3.723,4.639
-0.430,0.905,0.096,1.709,3.601,4.578
-0.427,0.903,0.098,1.404,3.174,4.272
-0.426,0.902,0.099,1.587,2.747,3.784
-0.427,0.900,0.100,1.892,2.075,3.052
-0.433,0.899,0.099,2.136,1.343,2.686
-0.439,0.902,0.095,2.441,0.610,2.625
-0.443,0.901,0.093,2.319,0.244,2.991
-0.446,0.899,0.090,2.258,0.549,3.418
-0.446,0.902,0.091,1.892,0.977,3.967
-0.444,0.905,0.093,1.343,1.709,4.639
-0.442,0.910,0.096,1.038,2.563,4.761
-0.439,0.913,0.100,0.916,3.357,5.005
-0.433,0.916,0.100,1.099,3.723,4.944
-0.428,0.917,0.101,1.465,3.601,4.822
-0.425,0.914,0.099,1.831,3.540,4.578
-0.426,0.910,0.098,2.136,3.113,3.967
-0.429,0.908,0.098,1.892,2.197,3.418
-0.431,0.909,0.097,1.526,1.282,3.113
-0.435,0.908,0.098,1.038,0.549,2.747
-0.439,0.908,0.100,1.160,0.061,2.747
-0.439,0.907,0.105,0.977,-0.183,2.686
-0.441,0.906,0.109,1.160,0.122,3.052
-0.438,0.904,0.112,1.526,0.610,3.357
-0.435,0.905,0.113,1.892,0.977,3.662
-0.433,0.904,0.110,2.258,1.709,4.150
-0.431,0.903,0.104,2.686,2.808,4.272
-0.428,0.903,0.096,2.686,3.906,4.395
-0.427,0.902,0.091,2.625,5.127,4.211
-0.426,0.900,0.087,1.953,5.859,3.845
-0.426,0.899,0.084,1.465,6.287,3.418
-0.423,0.899,0.087,0.793,6.042,2.930
-0.425,0.899,0.090,0.183,5.432,2.625
-0.426,0.901,0.095,-0.183,4.456,2.380
-0.428,0.903,0.102,0.183,3.113,2.197
-0.431,0.904,0.108,1.038,1.831,2.136
-0.434,0.907,0.113,1.709,0.671,2.136
-0.438,0.908,0.113,2.563,-0.366,2.075
-0.443,0.907,0.113,3.540,-1.099,2.197
-0.449,0.908,0.113,4.028,-1.282,2.014
-0.450,0.907,0.112,4.333,-1.099,2.014
-0.450,0.904,0.109,4.333,-0.549,2.075
-0.451,0.903,0.105,4.089,0.366,2.380
-0.451,0.901,0.102,3.662,1.770,2.319
-0.447,0.898,0.100,2.991,2.991,2.258
-0.446,0.896,0.100,2.502,4.089,2.319
-0.446,0.895,0.101,2.014,5.127,2.197
-0.445,0.895,0.102,1.709,5.432,2.075
-0.445,0.895,0.103,1.709,5.188,2.319
-0.445,0.897,0.105,1.709,4.578,2.380
-0.444,0.902,0.106,2.136,3.662,2.686
-0.443,0.903,0.108,2.625,2.502,3.052
-0.444,0.904,0.108,3.235,1.465,3.052
-0.443,0.907,0.107,3.906,0.671,3.113
-0.443,0.909,0.108,4.578,0.122,3.052
-0.444,0.907,0.106,5.127,-0.061,2.930
-0.443,0.903,0.103,5.188,0.183,2.747
-0.446,0.900,0.099,5.005,0.549,2.502
-0.449,0.898,0.093,4.639,1.282,2.319
-0.453,0.894,0.093,4.150,2.136,2.258
-0.455,0.893,0.092,3.540,2.991,2.197
-0.454,0.893,0.093,2.686,3.601,2.502
-0.455,0.897,0.091,2.197,4.150,2.930
-0.452,0.900,0.091,2.014,4.456,3.479
-0.446,0.902,0.093,2.014,4.700,4.150
-0.441,0.900,0.094,2.686,4.578,4.822
-0.436,0.900,0.094,2.930,4.150,5.066
-0.435,0.903,0.095,3.113,3.601,4.883
-0.437,0.905,0.094,3.235,2.625,4.517
-0.440,0.906,0.095,3.479,1.831,3.845
-0.443,0.906,0.095,3.479,0.854,3.357
-0.448,0.906,0.095,3.540,-0.061,2.991
-0.451,0.907,0.095,3.174,-0.244,2.991
-0.453,0.906,0.096,3.113,-0.305,2.991
-0.453,0.902,0.097,3.357,-0.122,3.479
-0.451,0.898,0.098,3.540,0.366,3.967
-0.449,0.897,0.097,3.235,0.793,4.272
-0.448,0.898,0.096,3.357,1.465,4.578
-0.442,0.898,0.094,3.418,2.197,4.944
-0.439,0.899,0.090,3.418,2.563,5.127
-0.437,0.902,0.087,3.113,2.686,5.127
-0.437,0.903,0.084,2.991,2.930,5.432
-0.433,0.905,0.085,2.808,3.113,5.188
-0.433,0.907,0.085,2.563,2.625,5.005
-0.432,0.908,0.087,2.075,2.136,4.822
-0.432,0.907,0.092,2.197,1.465,4.456
-0.432,0.907,0.097,2.563,0.671,4.211
-0.434,0.906,0.102,3.113,-0.183,3.967
-0.436,0.904,0.102,3.540,-1.160,3.906
-0.438,0.906,0.099,3.784,-1.648,4.028
-0.439,0.908,0.095,4.211,-1.648,4.211
-0.437,0.909,0.091,4.333,-1.221,4.578
-0.435,0.907,0.088,4.089,-0.549,4.883
-0.434,0.906,0.088,3.845,0.427,5.005
-0.433,0.904,0.089,3.235,1.160,4.883
-0.430,0.904,0.092,2.319,1.648,4.578
-0.429,0.907,0.095,1.892,2.075,4.272
-0.430,0.909,0.099,1.709,2.075,4.150
-0.427,0.909,0.102,1.831,1.892,4.089
-0.426,0.908,0.103,1.953,1.404,3.906
-0.429,0.907,0.104,2.258,0.977,3.845
-0.433,0.909,0.103,2.625,0.671,3.845
-0.435,0.911,0.101,2.869,0.366,3.723
-0.438,0.912,0.101,3.296,0.183,3.784
-0.439,0.912,0.100,3.174,0.122,3.662
-0.441,0.914,0.099,3.052,0.366,3.906
-0.441,0.916,0.102,2.930,0.427,4.028
-0.437,0.918,0.105,2.808,0.244,4.028
-0.434,0.916,0.105,2.441,0.305,3.906
-0.431,0.911,0.103,2.319,0.427,3.906
-0.429,0.911,0.104,2.136,0.854,3.479
-0.428,0.914,0.106,1.953,1.526,3.174
-0.426,0.911,0.109,2.136,1.770,3.113
-0.427,0.907,0.105,2.686,1.953,2.991
-0.429,0.907,0.100,2.808,2.319,2.625
-0.429,0.910,0.099,2.686,2.319,2.380
-0.429,0.910,0.099,2.686,2.319,2.441
-0.431,0.908,0.099,2.808,1.953,2.380
-0.432,0.910,0.101,2.930,1.465,2.441
-0.433,0.911,0.101,2.930,1.099,2.197
-0.435,0.911,0.105,3.235,0.793,2.014
-0.436,0.911,0.108,3.357,0.366,1.831
-0.439,0.911,0.107,3.662,0.122,1.831
-0.440,0.910,0.104,3.845,0.122,1.953
-0.441,0.906,0.103,3.967,0.305,1.831
-0.441,0.902,0.099,3.784,0.732,2.014
-0.441,0.901,0.097,3.479,1.465,2.319
-0.440,0.900,0.096,3.174,2.075,2.563
-0.440,0.902,0.093,2.869,2.686,2.625
-0.439,0.903,0.093,2.319,3.540,2.747
-0.434,0.900,0.094,2.197,4.028,2.930
-0.431,0.898,0.096,2.014,4.211,3.113
-0.430,0.898,0.098,2.075,3.967,2.869
-0.430,0.900,0.098,1.770,3.357,2.686
-0.433,0.904,0.099,2.014,2.686,2.563
-0.437,0.909,0.101,2.502,2.197,2.197
-0.441,0.911,0.103,2.869,1.526,2.075
-0.444,0.911,0.104,3.113,0.854,2.258
-0.448,0.911,0.104,3.113,0.427,2.258
-0.449,0.911,0.104,3.052,0.183,2.319
-0.447,0.910,0.104,3.052,0.122,2.380
-0.445,0.905,0.103,3.296,0.427,2.502
-0.444,0.901,0.100,3.479,1.038,2.563
-0.444,0.898,0.098,3.479,1.831,2.502
-0.444,0.896,0.097,3.113,2.441,2.563
-0.446,0.896,0.096,2.747,2.747,2.747
-0.449,0.896,0.095,2.380,3.052,2.930
-0.449,0.898,0.093,2.258,2.991,3.113
-0.447,0.903,0.091,2.136,2.747,3.296
-0.444,0.909,0.091,2.075,2.686,3.723
-0.437,0.910,0.090,2.441,2.625,4.150
-0.432,0.908,0.093,2.930,2.380,4.211
-0.430,0.904,0.097,3.174,1.709,3.784
-0.433,0.904,0.102,3.174,0.793,3.296
-0.440,0.908,0.103,2.991,-0.366,2.747
-0.445,0.911,0.101,3.235,-1.343,2.319
-0.450,0.910,0.099,3.662,-1.892,2.319
-0.452,0.906,0.094,3.784,-1.831,2.625
-0.451,0.902,0.088,3.723,-1.038,3.113
-0.452,0.898,0.083,3.357,0.183,3.601
-0.451,0.893,0.083,2.808,1.831,3.906
-0.450,0.891,0.085,1.892,2.869,4.150
-0.451,0.893,0.088,1.160,3.479,4.150
-0.452,0.892,0.089,0.854,3.357,4.395
-0.455,0.893,0.089,0.732,2.930,4.761
-0.455,0.892,0.089,0.671,2.380,5.371
-0.453,0.892,0.092,0.793,1.465,6.042
-0.451,0.891,0.092,0.732,0.549,6.714
-0.449,0.891,0.091,1.099,-0.244,7.263
-0.450,0.895,0.091,1.038,-0.732,7.629
-0.450,0.897,0.092,0.732,-0.732,7.690
-0.450,0.900,0.097,0.732,-0.244,7.874
-0.451,0.903,0.099,0.610,0.000,8.301
-0.451,0.906,0.103,0.488,0.183,8.240
-0.451,0.908,0.106,0.366,0.122,8.301
-0.450,0.905,0.107,0.183,0.061,8.545
-0.448,0.903,0.109,0.305,0.061,8.667
-0.446,0.903,0.108,0.183,0.183,8.789
-0.446,0.906,0.105,-0.244,0.732,8.972
-0.444,0.907,0.104,0.122,1.465,8.972
-0.441,0.907,0.104,0.610,2.075,8.911
-0.435,0.906,0.107,0.793,2.380,8.850
-0.429,0.906,0.106,0.793,2.136,8.789
-0.423,0.908,0.105,0.916,1.709,8.789
-0.417,0.911,0.104,1.221,1.343,8.484
-0.412,0.913,0.100,1.709,0.977,8.118
-0.409,0.913,0.097,2.014,0.854,7.385
-0.407,0.913,0.094,2.380,0.854,6.592
-0.412,0.915,0.095,2.502,1.160,5.432
-0.417,0.916,0.100,2.380,1.160,4.211
-0.424,0.916,0.107,2.258,0.427,3.052
-0.433,0.917,0.113,2.502,-0.549,1.831
-0.439,0.919,0.113,3.052,-1.343,1.282
-0.444,0.919,0.109,3.662,-1.892,1.221
-0.444,0.917,0.105,4.517,-1.953,1.160
-0.443,0.912,0.098,5.554,-1.465,1.404
-0.442,0.909,0.091,6.165,-0.732,1.587
-0.441,0.904,0.088,6.165,0.061,1.282
-0.443,0.903,0.087,5.859,0.244,0.549
-0.446,0.903,0.088,5.554,0.244,-0.122
-0.450,0.904,0.087,5.432,-0.427,-0.610
-0.453,0.903,0.087,5.554,-1.343,-0.732
-0.455,0.901,0.089,6.104,-2.014,-0.732
-0.458,0.895,0.091,6.042,-2.441,-0.732
-0.462,0.893,0.092,5.798,-2.930,-0.732
-0.469,0.895,0.093,6.104,-3.357,-0.610
-0.472,0.895,0.093,6.470,-3.601,-0.488
-0.472,0.895,0.094,6.775,-3.662,-0.122
-0.473,0.893,0.091,6.897,-3.418,0.610
-0.471,0.895,0.086,6.653,-2.930,1.465
-0.467,0.895,0.081,6.165,-2.441,2.136
-0.462,0.899,0.077,5.554,-2.075,2.808
-0.457,0.901,0.074,5.005,-1.465,3.174
-0.451,0.901,0.074,4.211,-1.038,3.418
-0.446,0.902,0.075,3.479,-1.038,3.418
-0.442,0.904,0.080,2.991,-1.282,3.418
-0.438,0.905,0.088,2.869,-1.831,3.296
-0.434,0.904,0.093,2.930,-2.380,3.296
-0.432,0.904,0.096,3.418,-3.479,3.357
-0.430,0.905,0.098,4.089,-4.700,3.235
-0.429,0.908,0.099,4.639,-5.737,3.235
-0.427,0.912,0.097,5.310,-6.470,3.662
-0.424,0.914,0.093,5.554,-6.836,4.150
-0.421,0.918,0.083,5.249,-6.348,4.517
-0.420,0.922,0.075,4.883,-5.188,4.578
-0.418,0.924,0.071,4.456,-3.418,4.822
-0.418,0.922,0.071,3.723,-2.197,4.639
-0.414,0.922,0.074,2.380,-1.587,4.639
-0.411,0.924,0.078,1.099,-1.038,4.456
-0.408,0.925,0.082,0.000,-1.038,4.395
-0.406,0.923,0.084,0.000,-1.648,4.395
-0.403,0.922,0.087,0.366,-2.075,4.700
-0.400,0.924,0.087,0.854,-2.380,5.371
-0.397,0.926,0.087,1.038,-3.113,6.042
-0.394,0.925,0.084,1.648,-3.662,6.897
-0.391,0.926,0.082,1.892,-4.089,7.202
-0.390,0.927,0.080,1.709,-4.089,7.019
-0.387,0.930,0.081,1.099,-3.845,6.775
-0.385,0.931,0.084,0.488,-3.784,6.226
-0.385,0.931,0.086,-0.305,-3.357,5.737
-0.385,0.930,0.086,-1.099,-3.174,5.127
-0.386,0.931,0.087,-1.526,-2.625,4.517
-0.391,0.932,0.087,-1.587,-2.197,3.906
-0.394,0.931,0.085,-1.709,-1.953,3.784
-0.398,0.932,0.082,-1.770,-1.465,3.784
-0.404,0.935,0.079,-2.014,-0.793,3.906
-0.408,0.936,0.078,-2.319,-0.122,4.089
-0.409,0.935,0.080,-2.563,0.183,4.333
-0.408,0.933,0.081,-2.441,0.366,4.395
-0.412,0.934,0.080,-2.625,0.122,4.395
-0.417,0.936,0.077,-2.869,-0.122,4.333
-0.420,0.937,0.072,-2.441,-0.183,4.272
-0.423,0.936,0.068,-2.319,-0.061,4.211
-0.424,0.936,0.067,-2.075,-0.061,4.395
-0.424,0.934,0.067,-2.136,-0.244,4.517
-0.418,0.931,0.067,-2.625,-0.427,4.761
-0.409,0.929,0.064,-3.113,-0.488,4.639
-0.398,0.930,0.062,-3.418,-0.061,4.761
-0.387,0.927,0.059,-3.845,0.427,5.005
-0.370,0.922,0.054,-4.089,1.343,4.883
-0.355,0.922,0.049,-4.578,3.052,4.456
-0.341,0.920,0.042,-5.005,4.761,3.784
-0.325,0.913,0.038,-5.005,6.470,2.808
-0.310,0.902,0.036,-4.761,7.568,1.404
-0.303,0.891,0.036,-4.700,7.996,-0.122
-0.310,0.891,0.032,-4.822,7.690,-1.709
-0.324,0.894,0.025,-4.883,7.019,-3.418
-0.348,0.900,0.025,-4.761,6.348,-5.005
-0.374,0.908,0.028,-4.639,5.249,-6.531
-0.405,0.922,0.027,-4.700,4.028,-7.568
-0.434,0.935,0.021,-4.639,2.869,-8.057
-0.459,0.950,0.016,-4.700,2.258,-7.812
-0.473,0.960,0.021,-4.700,2.319,-6.897
-0.480,0.968,0.031,-4.456,2.441,-5.554
-0.479,0.972,0.039,-3.784,1.953,-4.333
-0.468,0.970,0.045,-2.319,1.099,-2.869
-0.452,0.964,0.052,-1.099,0.061,-1.770
-0.437,0.955,0.057,0.854,-1.404,-0.916
-0.419,0.943,0.062,2.502,-2.380,-0.427
-0.407,0.924,0.058,4.395,-3.784,-0.183
-0.399,0.903,0.047,6.104,-5.066,-0.305
-0.395,0.887,0.036,7.202,-5.981,-0.488
-0.392,0.873,0.028,7.446,-5.920,-0.549
-0.394,0.859,0.021,6.592,-5.005,-0.366
-0.398,0.850,0.018,5.310,-3.662,0.000
-0.406,0.848,0.014,3.967,-2.380,0.488
-0.415,0.852,0.017,2.380,-1.099,1.160
-0.420,0.857,0.025,1.038,0.610,2.563
-0.419,0.862,0.038,0.183,1.648,4.395
-0.417,0.867,0.050,0.000,1.770,6.042
-0.413,0.870,0.061,0.488,0.977,7.874
-0.408,0.872,0.071,1.587,-0.488,9.338
-0.402,0.875,0.076,2.808,-1.831,10.681
-0.394,0.876,0.076,4.211,-2.869,11.902
-0.386,0.874,0.073,5.432,-3.662,13.062
-0.379,0.867,0.068,6.592,-3.723,13.733
-0.378,0.863,0.060,6.897,-3.174,14.099
-0.384,0.863,0.052,6.409,-2.380,13.977
-0.392,0.865,0.046,5.676,-1.099,14.160
-0.396,0.870,0.044,4.517,0.916,14.648
-0.396,0.875,0.042,3.540,2.991,15.564
-0.394,0.881,0.044,2.625,4.761,17.029
-0.384,0.886,0.042,1.587,6.226,18.494
-0.368,0.889,0.041,1.221,7.690,19.958
-0.353,0.897,0.041,1.221,8.850,20.874
-0.335,0.906,0.045,1.770,9.155,21.240
-0.318,0.911,0.052,2.625,8.667,21.179
-0.306,0.914,0.057,3.662,6.958,20.325
-0.303,0.922,0.059,4.761,4.272,19.165
-0.302,0.931,0.057,6.042,1.282,17.822
-0.304,0.935,0.055,7.568,-1.404,16.968
-0.308,0.935,0.053,8.850,-2.930,16.296
-0.315,0.937,0.052,9.644,-4.272,15.869
-0.320,0.939,0.051,9.949,-5.188,15.381
-0.321,0.940,0.048,9.888,-4.700,15.076
-0.319,0.935,0.048,10.071,-3.479,14.954
-0.320,0.932,0.050,9.949,-2.319,14.709
-0.320,0.928,0.053,9.644,-1.038,14.282
-0.322,0.928,0.052,9.216,0.366,14.038
-0.328,0.932,0.046,8.667,1.587,14.404
-0.330,0.937,0.041,7.996,2.686,14.587
-0.332,0.942,0.034,7.324,3.967,14.832
-0.332,0.949,0.031,5.981,5.249,14.954
-0.332,0.961,0.028,4.395,6.531,14.648
-0.330,0.975,0.031,3.296,7.874,14.099
-0.328,0.988,0.036,2.625,8.911,13.733
-0.328,0.997,0.043,2.686,9.644,13.062
-0.331,1.006,0.053,2.625,9.338,12.024
-0.336,1.016,0.062,2.808,8.423,11.353
-0.340,1.027,0.068,3.235,7.080,11.108
-0.340,1.035,0.068,4.211,5.737,11.047
-0.338,1.035,0.066,5.432,4.944,11.414
-0.329,1.028,0.063,7.019,5.066,11.536
-0.325,1.019,0.058,8.240,5.920,11.108
-0.336,1.016,0.058,8.728,6.958,10.071
-0.368,1.018,0.062,8.606,7.874,8.362
-0.428,1.033,0.073,7.690,8.179,6.287
-0.515,1.074,0.087,5.859,7.690,4.150
-0.591,1.119,0.091,3.967,6.104,3.479
-0.634,1.157,0.082,2.441,5.554,4.822
-0.651,1.171,0.063,1.465,6.714,8.240
-0.647,1.178,0.053,0.488,10.132,12.695
-0.635,1.178,0.057,-1.099,14.587,17.517
-0.597,1.183,0.075,-4.883,19.165,21.118
-0.551,1.201,0.093,-8.606,23.193,22.644
-0.504,1.188,0.119,-9.705,26.184,22.949
-0.445,1.137,0.124,-8.484,28.381,21.545
-0.385,1.111,0.127,-7.141,29.907,18.616
-0.336,1.012,0.095,-5.127,30.945,14.771
-0.302,0.923,0.072,-3.845,32.227,9.460
-0.302,0.855,0.080,-3.967,34.485,2.014
-0.321,0.805,0.063,-5.005,35.583,-5.798
-0.358,0.776,0.042,-6.714,35.889,-12.817
-0.415,0.768,0.043,-9.521,36.377,-17.212
-0.471,0.767,0.033,-13.245,36.438,-18.677
-0.514,0.777,0.017,-16.907,37.109,-18.372
-0.560,0.800,-0.005,-20.325,39.063,-17.090
-0.599,0.852,-0.012,-24.536,42.725,-14.893
-0.616,0.908,-0.001,-28.748,47.119,-11.292
-0.611,0.952,0.012,-32.227,50.659,-6.958
-0.580,0.982,0.041,-33.936,53.284,-3.601
-0.539,0.994,0.077,-34.363,54.138,-1.953
-0.503,0.990,0.110,-33.630,52.979,-2.747
-0.478,0.978,0.143,-31.372,49.072,-5.737
-0.463,0.966,0.168,-27.832,43.213,-10.132
-0.458,0.952,0.185,-23.254,35.706,-15.015
-0.454,0.928,0.185,-17.212,27.527,-19.287
-0.452,0.890,0.166,-10.864,20.203,-22.705
-0.454,0.857,0.130,-5.127,14.771,-25.391
-0.460,0.836,0.086,-1.526,11.963,-27.039
-0.461,0.819,0.044,0.488,12.329,-27.771
-0.456,0.799,0.015,0.305,14.587,-27.405
-0.447,0.780,-0.001,-1.587,18.127,-26.672
-0.438,0.774,-0.004,-4.456,21.729,-26.672
-0.434,0.782,0.011,-8.667,24.475,-27.344
-0.431,0.797,0.031,-12.634,26.123,-28.503
-0.431,0.807,0.050,-15.381,26.550,-29.724
-0.435,0.808,0.059,-16.541,25.879,-30.762
-0.442,0.805,0.067,-16.479,24.475,-31.494
-0.450,0.801,0.075,-15.198,22.644,-31.738
-0.456,0.794,0.081,-13.367,20.081,-31.372
-0.461,0.789,0.083,-11.536,17.151,-30.273
-0.462,0.786,0.088,-9.521,13.550,-28.687
-0.461,0.788,0.092,-7.019,10.132,-26.367
-0.459,0.790,0.094,-4.395,6.592,-23.865
-0.455,0.793,0.088,-2.014,3.174,-21.179
-0.448,0.793,0.073,0.000,0.427,-18.311
-0.442,0.787,0.051,1.160,-1.343,-16.052
-0.432,0.781,0.033,0.000,-1.343,-14.282
-0.429,0.790,0.027,-3.174,-0.244,-13.123
-0.429,0.810,0.032,-7.202,1.465,-12.756
-0.427,0.825,0.046,-10.071,3.357,-12.329
-0.425,0.835,0.063,-11.841,4.883,-11.841
-0.422,0.843,0.083,-12.390,5.554,-11.108
-0.417,0.848,0.098,-11.780,5.066,-9.888
-0.409,0.846,0.111,-10.132,3.296,-8.362
-0.405,0.843,0.118,-7.507,0.854,-7.263
-0.405,0.841,0.118,-4.700,-1.892,-6.104
-0.404,0.839,0.113,-1.465,-4.456,-4.761
-0.403,0.836,0.109,2.075,-7.812,-3.540
-0.407,0.836,0.100,5.249,-10.742,-2.258
-0.410,0.834,0.085,7.812,-13.245,-0.977
-0.413,0.830,0.068,9.827,-15.503,0.366
-0.419,0.828,0.051,10.681,-16.541,2.075
-0.428,0.826,0.035,9.888,-16.418,3.723
-0.435,0.827,0.018,7.874,-15.442,5.310
-0.442,0.835,0.004,4.333,-13.184,7.385
-0.449,0.854,-0.004,0.244,-9.827,9.155
-0.455,0.878,-0.004,-3.479,-5.432,11.292
-0.460,0.902,0.006,-5.981,-1.770,13.184
-0.464,0.927,0.021,-7.202,0.549,15.137
-0.461,0.947,0.031,-7.507,1.648,17.151
-0.457,0.964,0.032,-6.897,1.160,19.104
-0.457,0.979,0.033,-5.798,-0.488,20.935
-0.456,0.988,0.030,-4.211,-2.197,22.949
-0.451,0.987,0.015,-2.441,-4.272,24.536
-0.465,0.995,-0.003,-1.465,-6.287,25.574
-0.528,1.035,-0.011,-2.136,-8.057,25.574
-0.627,1.119,-0.001,-5.554,-10.193,24.353
-0.719,1.222,0.023,-11.414,-13.000,23.560
-0.754,1.334,0.047,-16.968,-17.883,25.818
-0.837,1.394,0.093,-17.639,-23.132,31.128
-0.878,1.361,0.163,-13.367,-27.405,39.063
-0.827,1.238,0.236,-7.080,-31.555,46.143
-0.729,1.086,0.271,-0.854,-36.194,47.668
-0.572,1.012,0.254,9.338,-38.879,43.701
-0.433,0.940,0.203,22.339,-37.598,40.955
-0.397,0.808,0.132,35.583,-32.959,42.664
-0.361,0.690,0.114,47.363,-27.710,44.434
-0.410,0.592,-0.005,55.359,-23.804,43.640
-0.475,0.548,-0.119,56.213,-20.569,40.588
-0.528,0.553,-0.212,48.767,-16.418,36.743
-0.588,0.594,-0.271,34.302,-10.925,33.142
-0.639,0.685,-0.287,15.808,-4.883,30.640
-0.663,0.797,-0.255,-1.282,0.244,29.968
-0.659,0.896,-0.190,-12.512,4.761,31.067
-0.621,1.028,-0.031,-16.968,6.897,33.386
-0.598,0.961,0.028,-15.198,4.639,35.828
-0.569,0.945,0.160,-9.644,-0.610,35.217
-0.529,0.934,0.264,-4.211,-10.010,34.302
-0.474,0.952,0.284,4.517,-23.865,33.020
-0.437,0.915,0.203,19.470,-37.659,32.227
-0.419,0.880,0.150,36.255,-46.326,31.189
-0.402,0.847,0.108,49.194,-49.561,29.846
-0.387,0.807,0.018,54.810,-50.049,28.992
-0.383,0.766,-0.054,53.162,-47.546,28.687
-0.378,0.745,-0.105,47.485,-41.321,28.076
-0.369,0.723,-0.152,38.818,-32.837,26.855
-0.367,0.720,-0.170,28.625,-22.522,24.719
-0.378,0.729,-0.170,18.066,-11.475,22.156
-0.387,0.762,-0.137,9.766,-1.892,19.958
-0.392,0.787,-0.090,4.822,6.226,18.982
-0.390,0.825,-0.039,2.319,11.780,19.348
-0.386,0.895,0.024,0.671,14.099,21.240
-0.384,0.886,0.038,0.977,12.939,24.658
-0.380,0.886,0.045,3.662,9.949,27.771
-0.367,0.901,0.070,6.897,6.226,29.907
-0.351,0.916,0.065,9.705,1.221,31.921
-0.334,0.908,0.039,13.062,-3.052,34.180
-0.319,0.906,0.024,16.296,-6.042,34.729
-0.308,0.912,0.006,17.883,-8.362,34.302
-0.301,0.918,-0.006,18.066,-9.277,32.959
-0.292,0.926,-0.006,18.066,-8.972,31.128
-0.285,0.932,0.003,17.944,-8.545,29.236
-0.288,0.950,0.013,17.700,-8.484,26.794
-0.290,0.959,0.021,17.517,-8.789,24.780
-0.298,0.967,0.030,17.639,-9.277,22.949
-0.307,0.970,0.041,17.456,-10.071,21.118
-0.318,0.984,0.050,17.395,-10.376,19.775
-0.321,0.986,0.055,17.700,-10.132,18.738
-0.318,0.983,0.051,18.005,-9.338,17.944
-0.314,0.977,0.041,17.761,-7.629,16.968
-0.312,0.968,0.037,17.761,-5.249,15.442
-0.313,0.959,0.032,17.090,-2.869,13.550
-0.315,0.955,0.031,15.808,-1.038,11.536
-0.317,0.956,0.034,14.221,1.343,9.705
-0.319,0.953,0.033,12.512,3.418,8.301
-0.321,0.949,0.036,10.681,5.310,7.080
-0.325,0.947,0.033,8.606,7.629,6.287
-0.332,0.943,0.026,6.470,10.437,6.042
-0.344,0.960,0.016,3.967,13.550,5.432
-0.352,0.965,0.009,0.916,17.334,5.249
-0.355,0.971,0.016,-1.404,21.301,4.822
-0.358,0.979,0.036,-3.479,24.780,4.211
-0.360,1.002,0.059,-5.493,27.222,3.540
-0.361,1.019,0.076,-6.714,28.320,2.808
-0.362,1.031,0.093,-6.592,28.320,1.892
-0.375,1.050,0.113,-5.493,27.954,0.610
-0.416,1.078,0.135,-4.211,26.917,-0.671
-0.483,1.112,0.150,-3.357,24.963,-2.502
-0.568,1.162,0.160,-3.479,21.973,-5.920
-0.654,1.240,0.169,-4.517,18.555,-10.315
-0.700,1.304,0.176,-5.066,15.442,-12.817
-0.708,1.335,0.156,-4.761,13.184,-11.902
-0.708,1.363,0.139,-5.798,13.611,-8.667
-0.699,1.372,0.108,-8.301,16.602,-4.456
-0.657,1.357,0.082,-11.230,21.790,-1.648
-0.574,1.315,0.085,-12.939,28.748,-1.282
-0.486,1.260,0.107,-14.099,35.950,-2.991
-0.415,1.211,0.155,-15.930,42.358,-6.653
-0.361,1.122,0.168,-18.005,46.265,-11.230
-0.323,1.017,0.174,-20.813,48.340,-18.188
-0.326,0.945,0.165,-25.452,50.476,-28.503
-0.331,0.893,0.206,-32.654,52.673,-40.039
-0.381,0.842,0.139,-41.138,55.176,-50.903
-0.441,0.880,0.154,-45.532,59.509,-62.866
-0.514,0.943,0.196,-45.471,65.308,-72.266
-0.582,0.963,0.239,-44.189,68.176,-74.829
-0.607,0.937,0.178,-42.542,67.871,-71.716
-0.631,0.939,0.153,-39.795,68.115,-68.115
-0.653,0.964,0.138,-36.682,70.374,-64.575
-0.644,0.977,0.112,-34.241,72.754,-60.242
-0.620,0.975,0.110,-31.372,74.829,-55.603
-0.586,0.969,0.115,-29.968,75.684,-51.758
-0.548,0.960,0.137,-30.457,75.195,-49.255
-0.517,0.943,0.143,-31.982,73.059,-48.706
-0.497,0.928,0.147,-32.776,69.580,-50.049
-0.486,0.912,0.156,-32.227,66.162,-53.101
-0.484,0.902,0.149,-30.823,62.622,-56.824
-0.490,0.891,0.137,-29.114,59.509,-60.303
-0.500,0.875,0.124,-26.611,57.495,-62.866
-0.510,0.855,0.115,-24.597,56.458,-64.453
-0.516,0.839,0.116,-22.644,55.725,-64.819
-0.516,0.825,0.111,-20.874,54.688,-64.148
-0.516,0.815,0.104,-18.921,53.650,-62.744
-0.511,0.797,0.100,-16.235,52.612,-60.852
-0.504,0.778,0.099,-14.282,51.147,-58.960
-0.500,0.766,0.099,-13.184,48.767,-57.190
-0.500,0.764,0.099,-12.756,46.021,-55.725
-0.502,0.765,0.097,-12.573,42.725,-54.626
-0.504,0.761,0.095,-12.329,39.124,-53.345
-0.506,0.755,0.094,-12.329,35.583,-52.124
-0.509,0.754,0.092,-12.939,32.532,-51.331
-0.514,0.758,0.095,-13.611,30.090,-50.232
-0.519,0.762,0.101,-13.611,28.198,-48.767
-0.521,0.765,0.104,-13.184,26.550,-46.570
-0.521,0.765,0.101,-11.902,25.146,-43.640
-0.517,0.762,0.102,-10.132,24.109,-40.222
-0.513,0.757,0.096,-8.240,23.071,-36.560
-0.507,0.752,0.093,-6.226,21.667,-32.776
-0.497,0.743,0.086,-4.761,19.714,-28.992
-0.490,0.731,0.081,-3.967,17.761,-25.635
-0.489,0.725,0.072,-3.845,15.869,-22.705
-0.492,0.726,0.060,-4.395,14.221,-20.142
-0.492,0.730,0.047,-5.554,13.367,-17.578
-0.489,0.733,0.032,-6.714,13.000,-14.709
-0.482,0.738,0.024,-7.935,13.611,-11.658
-0.476,0.742,0.018,-9.155,14.404,-8.301
-0.468,0.748,0.012,-10.315,15.259,-5.188
-0.462,0.755,0.008,-11.230,15.869,-2.197
-0.458,0.759,0.006,-11.658,16.235,0.427
-0.459,0.767,0.008,-11.841,15.869,3.235
-0.467,0.777,0.011,-11.353,14.832,6.042
-0.476,0.780,0.018,-11.230,12.817,8.728
-0.499,0.823,0.021,-10.559,9.766,11.047
-0.507,0.840,0.014,-9.338,6.470,14.221
-0.514,0.844,-0.000,-7.812,3.418,18.433
-0.521,0.846,-0.023,-6.470,0.854,22.827
-0.528,0.857,-0.046,-6.958,-0.977,26.855
-0.536,0.885,-0.066,-8.789,-1.770,30.151
-0.582,0.917,-0.074,-11.841,-1.587,32.166
-0.678,0.967,-0.051,-16.541,-1.831,31.921
-0.780,1.054,-0.019,-22.339,-3.601,28.931
-0.837,1.181,0.024,-26.611,-8.301,25.818
-0.865,1.277,0.082,-25.513,-14.954,27.344
-0.862,1.304,0.161,-20.264,-23.071,35.278
-0.774,1.256,0.235,-12.268,-32.532,46.875
-0.617,1.151,0.273,-2.625,-43.518,58.655
-0.469,1.070,0.255,7.751,-53.528,68.542
-0.338,1.001,0.242,18.738,-59.692,76.660
-0.249,0.881,0.212,28.259,-62.561,84.961
-0.225,0.773,0.137,36.438,-62.683,89.783
-0.219,0.691,0.037,40.100,-59.082,89.172
-0.251,0.644,-0.060,37.842,-51.208,84.351
-0.333,0.651,-0.135,30.945,-39.185,75.928
-0.418,0.698,-0.221,20.508,-24.597,66.589
-0.499,0.760,-0.303,9.338,-7.935,58.899
-0.553,0.845,-0.341,-1.648,9.338,55.115
-0.567,0.930,-0.298,-11.780,26.062,55.908
-0.549,0.986,-0.228,-20.264,38.574,59.998
-0.505,1.033,-0.135,-26.672,45.593,65.369
-0.454,1.060,-0.013,-29.297,46.326,71.472
-0.405,1.066,0.114,-28.625,40.039,76.233
-0.355,1.068,0.193,-25.452,27.161,78.674
-0.314,1.050,0.242,-17.273,10.376,79.285
-0.287,1.010,0.239,-4.883,-6.348,77.820
-0.279,0.981,0.216,10.559,-21.057,73.547
-0.291,0.963,0.182,25.696,-32.227,67.871
-0.319,0.946,0.143,37.903,-39.001,62.378
-0.350,0.936,0.089,45.593,-42.419,58.411
-0.351,0.860,0.017,47.302,-42.664,56.274
-0.415,0.950,-0.089,44.617,-38.635,54.565
-0.446,0.923,-0.048,42.175,-28.687,55.908
-0.426,0.881,-0.043,38.452,-18.799,59.021
-0.404,0.867,-0.055,29.602,-10.864,60.242
-0.400,0.893,-0.043,20.264,-4.089,60.730
-0.398,0.932,-0.062,10.681,1.953,62.256
-0.390,0.974,-0.069,2.319,9.888,64.270
-0.364,1.027,-0.058,-3.479,18.677,66.833
-0.341,0.978,-0.073,-7.080,26.794,68.665
-0.320,0.987,-0.046,-10.010,34.485,67.871
-0.308,1.001,-0.012,-13.489,39.917,65.796
-0.299,1.026,0.012,-16.418,41.687,62.927
-0.299,1.068,0.016,-18.311,40.833,60.486
-0.293,1.068,0.021,-19.165,39.001,59.021
-0.289,1.062,0.006,-18.738,37.170,57.922
-0.297,1.069,0.020,-18.555,36.316,56.152
-0.295,1.079,0.040,-18.127,35.095,54.199
-0.283,1.079,0.037,-17.639,33.325,52.246
-0.275,1.083,0.023,-16.724,31.921,49.683
-0.274,1.097,0.012,-16.113,31.555,46.265
-0.291,1.114,-0.020,-15.991,32.104,42.725
-0.271,1.053,0.028,-15.930,34.180,41.687
-0.261,1.013,0.062,-15.076,34.729,38.452
-0.265,1.034,0.059,-15.747,33.447,31.189
-0.270,1.048,0.069,-16.235,31.006,25.513
-0.279,1.038,0.062,-16.418,28.809,22.095
-0.287,1.011,0.058,-17.029,27.832,19.470
-0.289,0.982,0.066,-17.761,27.954,16.602
-0.303,0.966,0.063,-19.531,29.175,13.489
-0.319,0.958,0.058,-21.912,31.250,9.949
-0.331,0.950,0.054,-24.109,34.180,6.348
-0.344,0.949,0.056,-25.940,37.903,2.869
-0.356,0.950,0.055,-28.015,41.687,0.061
-0.362,0.949,0.062,-30.823,45.349,-1.526
-0.366,0.947,0.076,-33.813,48.767,-3.052
-0.369,0.946,0.089,-37.109,51.575,-4.639
-0.375,0.949,0.101,-39.490,53.955,-6.653
-0.383,0.952,0.114,-41.077,55.664,-9.033
-0.388,0.958,0.133,-42.358,56.946,-11.841
-0.391,0.961,0.154,-43.335,57.983,-14.771
-0.393,0.960,0.172,-43.152,58.228,-17.517
-0.393,0.954,0.191,-42.053,57.983,-20.081
-0.397,0.948,0.207,-40.527,57.251,-22.705
-0.410,0.937,0.219,-39.124,56.274,-25.269
-0.445,0.930,0.232,-37.048,55.298,-28.076
-0.514,0.939,0.241,-35.889,54.260,-31.555
-0.619,0.971,0.244,-36.194,53.284,-35.645
-0.738,1.022,0.235,-38.330,52.368,-39.673
-0.815,1.083,0.220,-41.260,52.551,-41.748
-0.832,1.141,0.212,-44.128,54.138,-39.856
-0.851,1.151,0.194,-47.424,57.739,-33.081
-0.830,1.186,0.176,-52.124,63.660,-24.536
-0.776,1.202,0.152,-56.641,71.411,-16.174
-0.703,1.202,0.148,-59.753,81.177,-9.644
-0.642,1.181,0.154,-60.425,91.736,-6.897
-0.561,1.136,0.191,-59.509,100.952,-7.812
-0.483,1.059,0.258,-59.692,107.483,-12.329
-0.450,0.982,0.308,-62.378,109.436,-20.752
-0.427,0.928,0.348,-65.796,106.812,-33.386
-0.457,0.896,0.366,-68.787,101.135,-47.424
-0.516,0.886,0.369,-70.862,94.727,-60.669
-0.579,0.897,0.352,-71.289,89.355,-70.740
-0.625,0.897,0.327,-71.350,86.487,-75.195
-0.658,0.880,0.313,-71.533,86.609,-75.623
-0.702,0.881,0.296,-72.632,89.417,-74.158
-0.728,0.914,0.271,-74.951,94.421,-71.716
-0.736,0.962,0.246,-76.172,101.379,-67.688
-0.722,1.013,0.229,-74.951,109.192,-62.561
-0.680,1.044,0.238,-71.167,116.882,-56.824
-0.627,1.042,0.273,-65.613,121.948,-52.246
-0.578,1.022,0.310,-60.486,123.169,-49.866
-0.554,0.998,0.339,-55.969,120.300,-50.476
-0.531,0.971,0.357,-51.941,113.220,-53.528
-0.511,0.929,0.362,-48.279,103.271,-57.800
-0.507,0.877,0.346,-45.044,92.651,-63.171
-0.530,0.834,0.320,-42.419,83.008,-69.702
-0.566,0.808,0.306,-42.114,75.684,-75.623
-0.601,0.801,0.295,-44.617,71.899,-79.956
-0.634,0.806,0.268,-47.913,71.777,-81.360
-0.653,0.799,0.249,-49.438,75.134,-80.566
-0.663,0.798,0.236,-49.194,81.116,-78.125
-0.667,0.803,0.226,-48.584,88.135,-73.975
-0.665,0.807,0.228,-47.668,95.703,-68.604
-0.656,0.808,0.228,-46.814,102.722,-62.988
-0.643,0.811,0.232,-46.143,108.215,-57.983
-0.625,0.805,0.237,-45.471,111.206,-53.833
-0.608,0.801,0.246,-44.983,112.183,-50.659
-0.598,0.792,0.250,-44.250,110.657,-48.645
-0.589,0.782,0.248,-43.335,106.934,-47.913
-0.584,0.779,0.234,-42.358,102.051,-47.485
-0.578,0.781,0.209,-41.260,96.680,-46.875
-0.571,0.782,0.178,-39.917,91.614,-45.898
-0.567,0.775,0.149,-37.842,87.708,-44.495
-0.561,0.766,0.136,-34.912,84.778,-42.480
-0.557,0.752,0.123,-31.189,81.909,-40.588
-0.554,0.778,0.119,-28.687,78.491,-38.757
-0.554,0.772,0.118,-26.306,74.768,-35.950
-0.554,0.759,0.123,-23.132,70.679,-32.288
-0.551,0.746,0.132,-18.738,65.735,-28.992
-0.543,0.735,0.145,-13.733,59.631,-26.611
-0.533,0.726,0.145,-10.498,52.673,-24.231
-0.527,0.730,0.130,-7.874,45.532,-22.339
-0.523,0.732,0.114,-4.272,38.513,-20.203
-0.523,0.723,0.084,-1.221,32.654,-18.188
-0.523,0.716,0.035,-0.183,28.259,-15.747
-0.519,0.718,-0.014,-0.916,26.062,-13.367
-0.524,0.734,-0.038,-2.258,26.184,-10.681
-0.506,0.730,0.025,-2.686,28.198,-7.568
-0.537,0.737,0.044,2.869,29.053,-4.700
-0.538,0.739,0.059,7.568,27.283,-1.099
-0.511,0.736,0.087,10.376,23.560,5.188
-0.520,0.742,0.103,12.268,17.822,13.062
-0.526,0.797,0.156,18.311,10.681,20.691
-0.522,0.892,0.172,30.212,2.075,27.588
-0.526,1.014,0.120,45.227,-5.371,34.363
-0.536,1.071,0.069,59.570,-10.925,42.358
-0.509,0.999,-0.001,71.106,-13.855,53.467
-0.457,0.876,-0.051,76.782,-14.160,63.110
-0.445,0.730,-0.124,74.463,-11.169,66.895
-0.451,0.614,-0.192,67.017,-6.165,64.026
-0.479,0.590,-0.260,54.871,0.732,55.664
-0.524,0.645,-0.262,40.649,10.254,45.288
-0.578,0.714,-0.199,25.085,19.409,36.621
-0.650,0.779,-0.104,8.606,24.475,30.518
-0.723,0.862,-0.006,-4.578,24.353,25.391
-0.779,0.972,0.067,-13.306,18.860,21.362
-0.820,1.069,0.116,-16.113,10.071,19.531
-0.841,1.156,0.160,-12.268,-0.427,20.081
-0.827,1.220,0.223,-4.883,-11.963,23.010
-0.750,1.238,0.282,5.432,-25.879,28.320
-0.642,1.225,0.322,18.555,-40.771,36.133
-0.530,1.169,0.307,32.898,-55.176,45.410
-0.429,1.075,0.268,47.974,-67.383,54.138
-0.357,0.954,0.220,63.782,-76.111,60.364
-0.307,0.819,0.150,77.759,-82.275,62.256
-0.309,0.705,0.054,85.938,-85.083,59.509
-0.341,0.642,-0.066,85.938,-83.740,53.650
-0.405,0.622,-0.200,77.515,-77.576,46.814
-0.476,0.641,-0.297,63.416,-66.345,40.527
-0.543,0.712,-0.367,45.410,-50.598,36.194
-0.596,0.798,-0.371,28.076,-32.043,34.302
-0.644,0.927,-0.323,13.916,-13.672,34.363
-0.666,1.069,-0.216,2.808,1.160,37.537
-0.646,1.135,-0.096,-3.113,11.414,44.434
-0.611,1.161,0.011,-4.517,16.541,53.101
-0.563,1.150,0.094,-2.197,16.418,60.791
-0.502,1.126,0.160,2.991,11.841,65.979
-0.451,1.106,0.202,9.766,4.395,68.237
-0.403,1.071,0.212,18.127,-4.395,68.054
-0.362,1.023,0.193,26.978,-14.282,65.857
-0.336,0.988,0.155,35.095,-23.804,61.584
-0.324,0.975,0.111,41.260,-31.494,56.763
-0.318,0.963,0.067,45.837,-36.499,52.124
-0.320,0.951,0.027,48.950,-38.818,48.096
-0.327,0.949,-0.012,49.927,-38.635,44.495
-0.339,0.960,-0.044,49.133,-36.438,42.114
-0.342,0.971,-0.070,46.509,-32.959,41.443
-0.344,0.967,-0.086,42.175,-28.259,41.992
-0.340,0.960,-0.090,35.706,-22.888,43.518
-0.317,0.999,-0.046,28.076,-17.395,44.983
-0.365,0.974,-0.108,22.644,-12.085,45.044
-0.360,0.996,0.040,15.381,-5.371,46.692
-0.351,0.913,0.085,11.536,-2.991,49.927
-0.346,0.917,0.091,8.362,-3.174,48.279
-0.352,0.956,0.089,5.615,-2.869,44.556
-0.372,1.005,0.071,2.319,-1.709,42.236
-0.380,1.037,0.046,-0.122,1.343,41.626
-0.371,1.058,0.039,-0.854,5.798,41.443
-0.359,1.064,0.041,-1.282,10.803,41.199
-0.342,1.058,0.045,-1.953,15.259,39.917
-0.328,1.056,0.049,-2.808,18.799,37.537
-0.318,1.061,0.056,-4.578,22.217,34.424
-0.313,1.064,0.059,-6.165,25.208,31.311
-0.310,1.068,0.059,-8.118,28.198,28.137
-0.302,1.060,0.061,-10.254,31.311,25.940
-0.293,1.047,0.058,-13.184,34.363,23.926
-0.289,1.038,0.052,-16.907,37.476,21.240
-0.292,1.029,0.049,-20.508,41.443,17.334
-0.300,1.029,0.052,-23.682,45.288,12.085
-0.308,1.040,0.062,-26.001,49.194,6.714
-0.312,1.051,0.079,-26.978,52.612,2.014
-0.314,1.052,0.101,-26.489,54.871,-1.465
-0.316,1.047,0.117,-25.146,55.603,-4.028
-0.323,1.048,0.128,-23.254,54.626,-6.287
-0.320,1.036,0.139,-20.203,52.551,-8.301
-0.321,1.012,0.154,-16.846,49.866,-10.132
-0.332,0.983,0.164,-14.465,46.265,-12.085
-0.341,0.954,0.160,-13.428,42.603,-14.404
-0.357,0.943,0.132,-13.489,39.917,-17.090
-0.369,0.931,0.099,-14.160,39.551,-19.226
-0.386,0.920,0.072,-16.296,41.687,-20.874
-0.418,0.930,0.070,-19.165,45.776,-21.851
-0.439,0.866,0.063,-21.973,51.147,-21.851
-0.445,0.824,0.042,-27.527,56.885,-22.888
-0.472,0.877,0.050,-35.706,62.744,-25.635
-0.490,0.902,0.077,-41.687,68.909,-27.161
-0.496,0.927,0.088,-44.189,74.768,-26.855
-0.494,0.947,0.088,-45.532,78.979,-25.452
-0.482,0.959,0.115,-45.715,82.031,-23.376
-0.466,0.953,0.142,-44.067,83.130,-21.240
-0.451,0.931,0.162,-41.504,82.397,-19.958
-0.441,0.895,0.187,-38.635,80.261,-20.203
-0.442,0.878,0.201,-36.438,76.294,-21.423
-0.448,0.870,0.202,-34.607,71.228,-22.705
-0.455,0.851,0.184,-32.898,66.528,-22.888
-0.473,0.825,0.150,-32.166,62.927,-23.071
-0.485,0.810,0.095,-32.532,61.523,-23.376
-0.490,0.815,0.080,-34.241,63.293,-23.437
-0.489,0.817,0.104,-35.278,67.383,-22.949
-0.476,0.804,0.116,-35.461,70.618,-21.851
-0.467,0.785,0.131,-35.522,72.571,-20.386
-0.469,0.774,0.150,-35.278,73.547,-19.287
-0.479,0.767,0.154,-34.851,73.547,-18.433
-0.515,0.778,0.164,-34.607,72.998,-18.494
-0.581,0.799,0.183,-34.302,71.777,-19.165
-0.658,0.836,0.191,-34.973,69.641,-19.958
-0.749,0.889,0.188,-37.109,66.895,-20.386
-0.826,0.949,0.177,-40.894,64.514,-19.653
-0.871,1.003,0.154,-45.715,63.477,-16.602
-0.880,1.052,0.120,-51.025,64.941,-10.864
-0.856,1.090,0.096,-56.335,69.153,-2.808
-0.795,1.106,0.092,-61.096,76.294,6.958
-0.718,1.105,0.123,-63.721,85.205,16.235
-0.641,1.070,0.167,-63.782,93.872,22.766
-0.562,1.018,0.221,-62.317,100.525,25.574
-0.489,0.957,0.280,-59.998,103.638,25.513
-0.440,0.887,0.324,-57.129,102.783,21.545
-0.414,0.821,0.356,-52.734,98.694,13.367
-0.421,0.780,0.406,-47.302,92.041,2.380
-0.454,0.702,0.331,-41.199,83.557,-8.362
-0.512,0.687,0.303,-37.292,76.538,-19.592
-0.565,0.700,0.308,-34.729,71.838,-28.015
-0.586,0.719,0.286,-34.058,67.688,-31.616
-0.610,0.724,0.222,-33.997,64.941,-30.518
-0.628,0.713,0.170,-34.119,65.552,-26.062
-0.627,0.708,0.126,-34.546,69.397,-20.264
-0.621,0.715,0.085,-35.889,75.562,-13.855
-0.614,0.726,0.078,-37.903,83.496,-7.690
-0.600,0.742,0.114,-39.429,90.759,-3.479
-0.582,0.751,0.162,-39.856,95.154,-1.038
-0.571,0.766,0.209,-40.344,95.764,-0.977
-0.568,0.771,0.243,-40.344,92.773,-2.197
-0.573,0.773,0.271,-38.940,86.792,-4.456
-0.585,0.775,0.291,-35.950,78.430,-6.592
-0.599,0.788,0.308,-32.654,69.031,-8.240
-0.617,0.810,0.311,-29.785,59.204,-8.911
-0.629,0.833,0.295,-27.283,50.293,-7.935
-0.636,0.847,0.272,-24.475,44.189,-5.493
-0.641,0.858,0.249,-21.973,40.894,-2.808
-0.639,0.864,0.223,-19.287,40.344,-0.366
-0.630,0.861,0.202,-16.357,42.297,1.831
-0.617,0.850,0.187,-13.672,45.593,3.906
-0.604,0.833,0.180,-11.963,49.866,5.310
-0.596,0.820,0.175,-11.292,54.016,5.737
-0.583,0.817,0.168,-11.841,57.190,5.615
-0.565,0.815,0.156,-13.733,60.120,5.676
-0.549,0.820,0.142,-16.113,62.927,5.737
-0.533,0.822,0.130,-17.822,65.308,5.859
-0.514,0.816,0.123,-18.555,67.383,6.042
-0.500,0.807,0.115,-18.982,69.275,5.920
-0.492,0.801,0.115,-18.982,70.740,5.371
-0.490,0.804,0.119,-18.555,71.411,4.761
-0.489,0.810,0.124,-17.700,70.984,4.700
-0.490,0.809,0.126,-16.724,69.519,5.249
-0.497,0.805,0.128,-16.052,67.139,6.409
-0.507,0.806,0.131,-15.686,64.575,7.751
-0.521,0.808,0.126,-15.625,61.829,8.911
-0.536,0.815,0.120,-15.625,59.326,10.071
-0.553,0.831,0.117,-15.320,57.251,11.230
-0.563,0.851,0.112,-15.564,55.237,13.000
-0.566,0.873,0.099,-16.907,54.443,15.076
-0.562,0.892,0.081,-19.653,54.260,17.639
-0.552,0.911,0.075,-22.522,55.298,20.264
-0.536,0.928,0.084,-25.269,57.434,22.217
-0.520,0.952,0.093,-26.611,59.692,23.437
-0.501,0.959,0.111,-26.978,62.195,24.414
-0.486,0.956,0.126,-26.428,64.331,25.330
-0.474,0.937,0.134,-24.658,65.796,25.635
-0.467,0.912,0.143,-22.522,66.650,25.574
-0.463,0.892,0.149,-20.874,66.589,24.597
-0.464,0.880,0.148,-19.775,65.918,22.583
-0.466,0.874,0.140,-19.287,64.453,20.569
-0.472,0.875,0.129,-19.226,62.927,18.738
-0.479,0.881,0.113,-19.775,61.951,17.700
-0.482,0.887,0.096,-20.447,61.462,17.151
-0.486,0.887,0.077,-22.034,62.012,17.090
-0.482,0.879,0.055,-24.353,63.354,17.273
-0.481,0.874,0.050,-27.710,65.552,17.273
-0.476,0.880,0.066,-30.640,67.810,16.785
-0.471,0.883,0.089,-32.043,69.519,15.930
-0.471,0.886,0.107,-32.593,70.129,15.503
-0.471,0.888,0.121,-32.227,69.641,15.320
-0.470,0.889,0.130,-31.189,68.481,15.564
-0.471,0.892,0.137,-29.175,66.589,16.052
-0.470,0.893,0.139,-26.733,64.453,16.846
-0.469,0.884,0.133,-24.475,62.134,17.212
-0.474,0.870,0.121,-22.827,59.631,17.090
-0.487,0.856,0.097,-22.522,57.861,16.602
-0.498,0.837,0.061,-24.353,57.312,15.869
-0.513,0.828,0.032,-28.259,58.411,14.709
-0.525,0.837,0.024,-32.776,60.608,13.489
-0.531,0.865,0.032,-37.415,63.660,12.878
-0.528,0.894,0.045,-41.077,66.833,13.306
-0.518,0.914,0.060,-43.030,70.007,14.709
-0.505,0.923,0.080,-42.847,72.632,16.357
-0.490,0.914,0.101,-41.077,74.158,17.639
-0.484,0.894,0.114,-38.513,74.036,18.066
-0.490,0.876,0.117,-35.645,72.266,17.151
-0.496,0.872,0.116,-33.081,69.275,15.076
-0.500,0.865,0.082,-31.677,65.247,12.939
-0.524,0.874,0.073,-31.311,61.646,11.353
-0.568,0.893,0.096,-29.846,58.655,9.949
-0.604,0.929,0.094,-29.297,54.871,8.728
-0.624,0.979,0.082,-30.579,50.293,8.606
-0.638,1.024,0.079,-32.654,46.204,9.705
-0.636,1.063,0.087,-33.386,43.762,12.085
-0.618,1.081,0.094,-31.799,42.480,14.160
-0.590,1.083,0.116,-28.259,42.297,15.320
-0.559,1.042,0.138,-24.048,42.358,15.808
-0.507,0.993,0.165,-19.775,41.626,15.320
-0.461,0.930,0.170,-15.991,39.917,14.221
-0.433,0.869,0.178,-12.024,37.842,11.353
-0.420,0.817,0.165,-8.545,35.950,6.592
-0.422,0.780,0.127,-5.615,34.851,0.854
-0.438,0.761,0.072,-3.357,35.156,-4.089
-0.459,0.754,0.017,-2.808,36.865,-7.568
-0.475,0.755,-0.015,-4.028,40.161,-9.033
-0.494,0.761,-0.044,-6.226,44.617,-9.094
-0.510,0.770,-0.070,-9.338,49.500,-7.874
-0.523,0.784,-0.091,-13.184,54.443,-5.737
-0.531,0.799,-0.079,-17.029,59.021,-3.052
-0.533,0.822,-0.049,-20.203,62.500,-0.549
-0.522,0.848,-0.010,-22.522,63.721,2.380
-0.505,0.870,0.037,-23.560,62.317,5.554
-0.487,0.875,0.081,-22.766,58.411,8.423
-0.470,0.863,0.109,-20.386,52.368,10.559
-0.466,0.851,0.120,-17.517,45.715,11.047
-0.467,0.847,0.113,-14.709,39.124,10.376
-0.473,0.845,0.083,-12.451,33.813,8.728
-0.488,0.850,0.043,-10.559,30.884,6.958
-0.496,0.854,0.002,-9.827,30.762,5.676
-0.498,0.855,-0.026,-10.742,32.898,4.944
-0.500,0.859,-0.042,-12.695,36.438,4.395
-0.501,0.864,-0.036,-15.137,41.077,4.211
-0.501,0.864,-0.029,-17.273,45.532,3.967
-0.506,0.865,-0.017,-19.226,48.767,3.601
-0.513,0.873,-0.003,-20.630,51.025,2.930
-0.519,0.885,0.011,-21.362,52.246,2.380
-0.523,0.894,0.020,-20.996,52.368,2.747
-0.527,0.891,0.023,-19.775,51.514,3.357
-0.526,0.883,0.022,-17.700,50.171,4.089
-0.527,0.876,0.019,-15.015,48.096,5.005
-0.531,0.874,0.011,-13.184,45.898,5.859
-0.535,0.881,0.001,-12.268,43.457,7.080
-0.538,0.893,-0.011,-12.207,41.504,7.935
-0.541,0.902,-0.021,-12.390,40.039,8.484
-0.540,0.907,-0.029,-13.489,39.368,9.094
-0.535,0.915,-0.036,-15.747,39.551,9.521
-0.533,0.926,-0.042,-17.944,40.527,9.583
-0.525,0.934,-0.042,-19.470,41.992,9.338
-0.512,0.933,-0.036,-19.958,43.701,9.460
-0.499,0.931,-0.025,-20.020,45.166,9.888
-0.487,0.927,-0.013,-19.409,45.898,10.315
-0.474,0.917,-0.006,-18.616,45.654,10.864
-0.463,0.908,-0.000,-17.151,44.922,11.414
-0.455,0.897,0.002,-15.930,43.213,11.719
-0.455,0.894,-0.004,-14.832,41.199,11.841
-0.458,0.888,-0.014,-14.038,39.001,11.658
-0.461,0.884,-0.018,-14.099,37.170,12.146
-0.464,0.882,-0.022,-15.320,35.706,12.573
-0.465,0.883,-0.023,-16.968,34.973,13.000
-0.463,0.890,-0.013,-18.677,35.034,13.733
-0.460,0.879,-0.029,-19.287,35.461,14.099
-0.464,0.871,-0.012,-19.592,37.354,14.160
-0.460,0.881,0.005,-20.203,39.185,14.404
-0.447,0.890,0.005,-21.179,39.978,15.015
-0.441,0.894,-0.008,-21.790,40.405,16.235
-0.436,0.899,-0.019,-21.606,41.321,17.517
-0.428,0.901,-0.023,-20.935,42.725,18.555
-0.425,0.895,-0.018,-20.081,44.128,19.165
-0.427,0.888,-0.012,-19.714,44.678,19.043
-0.431,0.887,-0.006,-20.264,43.945,18.250
-0.434,0.891,-0.000,-21.423,42.847,17.395
-0.437,0.890,0.008,-22.156,41.138,16.907
-0.437,0.885,0.017,-23.010,39.368,16.724
-0.439,0.878,0.020,-23.560,38.269,16.541
-0.438,0.871,0.018,-23.865,37.720,16.296
-0.438,0.870,0.012,-23.987,38.147,16.113
-0.437,0.873,0.006,-24.170,39.368,16.113
-0.434,0.875,-0.001,-24.414,41.321,15.930
-0.434,0.878,-0.009,-24.048,43.579,15.381
-0.432,0.881,-0.007,-23.437,45.776,15.015
-0.429,0.883,0.003,-22.705,46.997,14.404
-0.426,0.882,0.018,-21.912,46.692,13.550
-0.428,0.869,0.023,-20.569,44.861,12.451
-0.433,0.868,0.053,-20.020,41.992,11.536
-0.438,0.850,0.067,-19.226,38.269,10.498
-0.445,0.842,0.067,-18.433,34.180,9.583
-0.457,0.842,0.064,-17.395,31.128,8.362
-0.466,0.835,0.049,-16.174,29.480,7.935
-0.472,0.820,0.037,-15.259,29.724,8.545
-0.473,0.809,0.033,-14.954,31.372,9.521
-0.476,0.807,0.031,-15.442,33.875,10.681
-0.480,0.814,0.027,-16.174,37.231,11.719
-0.487,0.820,0.030,-17.029,40.955,12.024
-0.496,0.823,0.042,-17.273,44.617,11.719
-0.517,0.829,0.061,-17.029,47.607,10.925
-0.549,0.844,0.085,-16.968,48.889,9.766
-0.591,0.872,0.109,-17.151,48.523,8.972
-0.640,0.917,0.121,-18.005,46.997,8.972
-0.681,0.965,0.118,-19.104,44.983,10.193
-0.691,1.011,0.106,-20.020,43.457,13.000
-0.669,1.042,0.084,-20.996,43.457,17.700
-0.625,1.047,0.050,-21.667,46.082,23.071
-0.578,1.026,0.019,-21.606,51.331,27.344
-0.535,0.988,0.014,-20.630,57.983,28.870
-0.503,0.953,0.034,-19.897,64.392,26.978
-0.484,0.928,0.064,-20.325,68.237,22.278
-0.476,0.913,0.093,-21.667,68.726,16.052
-0.483,0.902,0.124,-23.621,66.162,9.644
-0.502,0.890,0.147,-25.330,61.340,3.906
-0.525,0.889,0.155,-26.978,55.054,-0.183
-0.537,0.887,0.141,-28.687,49.377,-1.831
-0.542,0.887,0.123,-30.090,45.959,-1.648
-0.538,0.884,0.115,-31.067,45.532,-0.610
-0.534,0.884,0.110,-30.701,47.607,0.366
-0.531,0.900,0.100,-29.236,51.392,0.549
-0.529,0.923,0.084,-26.917,56.152,-0.183
-0.523,0.942,0.078,-24.719,60.913,-0.916
-0.513,0.945,0.070,-23.315,64.819,-2.197
-0.509,0.947,0.061,-23.254,67.200,-3.784
-0.501,0.955,0.059,-24.414,67.749,-6.042
-0.491,0.962,0.061,-25.879,66.467,-9.155
-0.479,0.962,0.070,-26.978,63.965,-12.512
-0.471,0.953,0.086,-27.466,59.937,-16.479
-0.465,0.935,0.111,-27.649,55.115,-20.813
-0.469,0.914,0.139,-27.161,49.683,-25.085
-0.481,0.900,0.157,-25.696,43.579,-29.114
-0.495,0.894,0.169,-23.071,37.659,-32.410
-0.510,0.890,0.182,-19.714,32.654,-34.180
-0.519,0.880,0.180,-16.296,28.687,-34.607
-0.523,0.867,0.164,-13.245,25.757,-34.424
-0.528,0.864,0.137,-10.559,24.841,-33.569
-0.532,0.869,0.104,-8.667,25.818,-32.166
-0.530,0.884,0.079,-7.751,28.564,-30.518
-0.523,0.892,0.057,-7.690,32.593,-29.114
-0.511,0.897,0.063,-8.423,36.743,-28.076
-0.501,0.886,0.061,-10.010,40.344,-27.771
-0.501,0.873,0.061,-11.536,42.969,-28.564
-0.504,0.867,0.076,-12.329,43.884,-30.151
-0.500,0.871,0.105,-13.245,43.213,-31.799
-0.493,0.875,0.135,-13.855,40.405,-32.532
-0.493,0.867,0.158,-13.550,36.255,-32.532
-0.495,0.855,0.169,-12.634,31.311,-32.410
-0.504,0.848,0.171,-11.292,26.672,-32.532
-0.515,0.846,0.164,-9.216,22.949,-32.898
-0.526,0.849,0.151,-7.141,20.508,-33.142
-0.543,0.855,0.135,-5.310,19.592,-33.142
-0.556,0.856,0.117,-4.211,19.714,-32.654
-0.565,0.856,0.094,-4.639,21.179,-31.860
-0.569,0.852,0.079,-5.859,23.926,-31.006
-0.565,0.848,0.077,-7.385,27.100,-29.724
-0.554,0.843,0.089,-8.667,30.273,-28.503
-0.540,0.838,0.103,-10.132,32.471,-27.222
-0.531,0.838,0.107,-11.108,33.813,-26.367
-0.526,0.845,0.103,-11.169,34.302,-25.574
-0.517,0.857,0.112,-10.620,33.997,-24.414
-0.505,0.868,0.130,-10.132,32.776,-23.071
-0.499,0.875,0.143,-9.338,30.579,-21.606
-0.497,0.876,0.151,-8.118,27.222,-20.752
-0.494,0.882,0.155,-6.653,23.743,-20.203
-0.490,0.893,0.158,-5.188,20.447,-19.287
-0.486,0.895,0.164,-3.906,17.639,-18.311
-0.481,0.889,0.166,-3.174,15.808,-17.273
-0.480,0.879,0.161,-3.052,15.015,-16.663
-0.478,0.871,0.148,-3.174,15.137,-16.357
-0.475,0.869,0.128,-3.723,16.785,-15.930
-0.469,0.867,0.106,-4.333,19.958,-15.320
-0.458,0.867,0.091,-4.639,24.170,-14.404
-0.450,0.870,0.084,-5.066,28.564,-13.062
-0.442,0.875,0.082,-5.310,32.043,-11.780
-0.430,0.877,0.083,-5.432,34.485,-10.620
-0.421,0.878,0.089,-5.737,35.217,-9.705
-0.417,0.879,0.100,-5.371,34.485,-9.033
-0.415,0.880,0.107,-5.005,32.410,-8.667
-0.415,0.880,0.105,-4.578,29.236,-8.484
-0.415,0.878,0.097,-3.784,25.879,-7.874
-0.415,0.871,0.091,-3.174,22.949,-7.141
-0.420,0.867,0.085,-2.319,20.447,-6.836
-0.427,0.863,0.080,-1.282,18.494,-6.592
-0.432,0.861,0.073,-0.244,16.724,-6.287
-0.435,0.858,0.068,0.793,15.259,-5.615
-0.434,0.857,0.063,1.892,13.794,-4.822
-0.435,0.858,0.058,2.991,12.573,-3.662
-0.435,0.855,0.057,3.540,10.620,-2.197
-0.432,0.852,0.057,3.906,8.606,-1.099
-0.435,0.850,0.058,3.784,6.042,-0.366
-0.440,0.853,0.063,3.967,3.174,0.305
-0.442,0.853,0.069,4.517,0.488,0.977
-0.450,0.856,0.072,5.127,-1.892,1.953
-0.458,0.863,0.073,5.737,-4.211,3.052
-0.464,0.868,0.074,6.470,-6.836,4.822
-0.470,0.871,0.072,7.141,-9.216,6.836
-0.475,0.869,0.070,7.507,-10.864,8.850
-0.472,0.866,0.072,7.751,-12.146,11.047
-0.467,0.864,0.076,7.751,-12.939,13.489
-0.461,0.863,0.076,7.874,-13.367,15.686
-0.453,0.865,0.065,7.996,-13.245,17.822
-0.444,0.867,0.047,8.301,-12.451,19.470
-0.434,0.865,0.037,9.155,-11.230,21.362
-0.428,0.854,0.037,9.827,-10.193,23.010
-0.431,0.847,0.042,9.888,-10.376,23.804
-0.455,0.854,0.050,9.094,-11.841,23.865
-0.502,0.884,0.062,7.385,-14.771,23.499
-0.569,0.930,0.082,5.676,-18.860,22.766
-0.630,0.981,0.108,4.700,-23.499,22.461
-0.681,1.060,0.125,4.150,-28.931,23.437
-0.684,1.103,0.145,3.296,-34.302,26.978
-0.678,1.112,0.151,3.845,-38.574,32.959
-0.655,1.117,0.163,5.127,-41.260,39.246
-0.602,1.110,0.174,7.935,-42.175,44.739
-0.534,1.067,0.164,11.475,-41.565,49.316
-0.477,1.006,0.146,15.625,-39.246,52.673
-0.434,0.946,0.131,20.691,-35.583,53.772
-0.406,0.895,0.106,24.048,-31.616,52.307
-0.397,0.861,0.068,25.757,-27.527,48.950
-0.402,0.836,0.027,26.184,-23.376,44.495
-0.416,0.822,-0.014,24.292,-19.531,40.344
-0.429,0.825,-0.052,19.531,-15.869,37.476
-0.437,0.846,-0.087,12.878,-12.146,36.377
-0.440,0.874,-0.117,6.348,-7.324,36.438
-0.433,0.895,-0.123,1.465,-2.686,37.292
-0.416,0.905,-0.096,-1.587,1.160,38.635
-0.398,0.904,-0.040,-2.808,3.784,39.185
-0.387,0.893,0.029,-2.319,2.686,37.903
-0.385,0.884,0.096,-0.122,-1.831,34.302
-0.395,0.871,0.147,3.479,-9.094,29.724
-0.414,0.859,0.180,7.385,-19.409,24.658
-0.436,0.859,0.189,11.108,-30.273,19.836
-0.463,0.874,0.163,15.442,-40.039,15.747
-0.491,0.894,0.122,19.836,-46.936,13.550
-0.517,0.906,0.081,23.682,-50.293,13.123
-0.534,0.908,0.048,26.123,-50.293,14.404
-0.544,0.903,0.026,27.588,-47.729,16.602
-0.543,0.913,0.021,27.710,-43.274,19.653
-0.529,0.906,0.026,26.917,-38.025,23.071
-0.510,0.883,0.028,26.855,-32.593,25.574
-0.499,0.861,0.018,27.100,-27.161,26.184
-0.492,0.851,0.014,27.222,-22.156,25.757
-0.481,0.856,0.017,26.550,-18.127,25.269
-0.472,0.865,0.013,25.330,-15.320,25.574
-0.465,0.889,-0.011,24.231,-13.428,26.672
-0.451,0.925,-0.059,24.536,-11.719,27.771
-0.427,0.933,-0.107,25.696,-9.705,29.602
-0.398,0.912,-0.126,26.672,-8.179,31.677
-0.373,0.882,-0.114,26.855,-8.240,32.715
-0.363,0.868,-0.101,26.306,-10.559,32.288
-0.351,0.852,-0.073,25.940,-15.625,30.579
-0.340,0.822,-0.057,26.367,-23.010,28.503
-0.352,0.813,0.012,26.855,-30.762,25.269
-0.366,0.845,0.085,26.611,-40.039,21.973
-0.379,0.889,0.094,26.306,-51.025,20.081
-0.405,0.934,0.068,26.917,-61.096,19.897
-0.439,0.959,0.032,27.954,-67.200,21.484
-0.472,0.983,0.023,29.480,-68.542,23.987
-0.488,0.966,0.029,30.029,-65.674,27.283
-0.498,0.964,0.010,30.884,-61.218,28.687
-0.500,0.971,-0.039,30.579,-54.626,27.832
-0.498,0.968,-0.074,27.832,-46.021,27.283
-0.492,0.948,-0.075,24.658,-36.438,28.015
-0.476,0.922,-0.045,20.752,-27.954,29.297
-0.460,0.905,-0.014,15.564,-21.545,30.151
-0.451,0.903,0.000,10.193,-16.968,30.823
-0.444,0.931,0.005,5.920,-13.672,31.555
-0.429,0.968,0.001,3.113,-10.559,31.982
-0.421,0.994,0.000,2.136,-7.324,31.860
-0.422,1.021,0.004,2.991,-3.906,30.518
-0.413,1.045,-0.001,4.944,-2.197,29.175
-0.410,1.081,0.005,7.812,-1.160,28.625
-0.448,1.180,0.045,12.390,-0.732,30.212
-0.458,1.253,0.107,21.057,-2.075,36.011
-0.430,1.205,0.146,33.325,-5.981,46.631
-0.411,1.082,0.125,44.250,-11.597,57.556
-0.395,0.936,0.055,51.514,-15.991,64.026
-0.392,0.843,-0.011,53.223,-18.188,63.293
-0.396,0.836,-0.058,48.035,-18.311,57.373
-0.414,0.894,-0.094,37.354,-17.273,49.561
-0.396,0.992,-0.121,26.001,-14.893,42.175
-0.422,1.072,-0.126,15.869,-11.353,37.354
-0.412,1.117,-0.099,8.728,-7.751,33.997
-0.379,1.106,-0.058,6.104,-5.127,30.396
-0.353,1.052,-0.039,5.371,-3.967,26.123
-0.346,0.976,-0.030,5.127,-3.418,20.081
-0.371,0.951,-0.037,6.104,-4.089,10.742
-0.414,0.942,-0.057,5.737,-6.165,1.526
-0.494,1.018,-0.070,4.272,-9.399,-4.578
-0.554,1.081,-0.120,3.235,-13.184,-6.287
-0.592,1.076,-0.182,0.732,-15.625,-3.540
-0.624,1.088,-0.235,-1.770,-15.930,-0.366
-0.630,1.037,-0.238,-4.639,-15.442,2.014
-0.633,0.993,-0.198,-8.545,-15.747,2.014
-0.658,1.016,-0.157,-11.902,-18.066,-0.793
-0.687,1.041,-0.103,-12.634,-22.339,-4.272
-0.708,1.059,-0.085,-10.986,-27.649,-7.263
-0.747,1.073,-0.094,-8.240,-32.837,-9.399
-0.768,1.075,-0.094,-6.287,-37.048,-10.315
-0.773,1.070,-0.104,-5.859,-40.527,-10.498
-0.788,1.076,-0.138,-7.324,-42.480,-10.681
-0.757,1.053,-0.112,-9.521,-42.542,-9.216
-0.683,1.005,-0.071,-10.925,-41.992,-6.958
-0.629,0.953,-0.047,-12.573,-41.199,-5.798
-0.618,0.920,-0.053,-13.916,-39.124,-6.836
-0.608,0.889,-0.068,-14.404,-35.645,-8.423
-0.547,0.834,-0.046,-15.442,-31.860,-9.399
-0.489,0.780,-0.041,-17.334,-28.503,-10.803
-0.472,0.745,-0.056,-19.287,-25.269,-14.282
-0.511,0.753,-0.110,-22.339,-20.325,-19.836
-0.595,0.774,-0.171,-25.330,-13.000,-25.085
-0.642,0.769,-0.170,-28.259,-5.554,-28.259
-0.646,0.757,-0.109,-31.616,-1.953,-28.992
-0.658,0.775,-0.054,-35.706,-2.991,-28.503
-0.697,0.799,-0.033,-39.063,-8.301,-28.748
-0.742,0.841,-0.008,-37.903,-14.160,-31.250
-0.747,0.875,0.021,-33.752,-19.348,-35.278
-0.791,0.880,0.042,-28.442,-23.987,-39.429
-0.834,0.894,0.029,-22.095,-27.893,-44.800
-0.830,0.891,0.028,-13.489,-30.457,-50.415
-0.815,0.896,0.006,-3.357,-32.043,-55.786
-0.825,0.913,-0.027,5.310,-32.288,-60.181
-0.855,0.922,-0.059,10.132,-31.555,-62.439
-0.862,0.893,-0.073,11.963,-30.457,-62.134
-0.827,0.829,-0.069,11.963,-30.518,-60.486
-0.782,0.767,-0.077,9.277,-31.555,-60.059
-0.752,0.737,-0.105,4.028,-30.701,-61.951
-0.734,0.727,-0.118,-1.282,-26.611,-65.369
-0.737,0.722,-0.115,-5.493,-20.264,-69.641
-0.782,0.751,-0.107,-8.972,-13.672,-74.097
-0.807,0.780,-0.067,-12.146,-9.033,-75.928
-0.799,0.784,-0.035,-12.878,-7.996,-74.097
-0.765,0.755,-0.017,-10.193,-9.766,-70.740
-0.748,0.732,-0.027,-5.798,-12.878,-68.176
-0.739,0.753,-0.055,-0.549,-15.259,-67.017
-0.727,0.766,-0.077,4.578,-15.625,-65.491
-0.705,0.754,-0.090,10.010,-13.794,-62.439
-0.675,0.723,-0.087,15.869,-10.559,-59.082
-0.656,0.697,-0.101,21.057,-7.324,-56.824
-0.642,0.670,-0.126,24.536,-4.456,-55.237
-0.617,0.644,-0.138,25.757,-2.258,-53.589
-0.599,0.620,-0.146,23.926,-1.221,-51.880
-0.585,0.602,-0.150,20.020,-0.671,-51.086
-0.573,0.599,-0.148,15.625,-0.916,-51.392
-0.563,0.604,-0.142,11.414,-1.648,-52.124
-0.548,0.605,-0.129,7.874,-2.197,-53.345
-0.536,0.615,-0.107,4.272,-2.808,-54.504
-0.524,0.626,-0.085,1.282,-4.333,-55.725
-0.502,0.636,-0.062,0.000,-6.348,-56.030
-0.481,0.645,-0.053,0.916,-8.362,-55.359
-0.463,0.665,-0.042,3.723,-10.010,-53.772
-0.461,0.690,-0.039,8.118,-11.108,-50.720
-0.453,0.706,-0.031,14.893,-12.207,-45.837
-0.447,0.708,-0.028,22.766,-13.245,-38.879
-0.458,0.695,-0.034,30.029,-15.015,-31.616
-0.468,0.698,-0.059,35.645,-17.700,-25.452
-0.461,0.707,-0.099,38.086,-19.775,-19.531
-0.438,0.701,-0.127,38.086,-21.301,-12.878
-0.416,0.693,-0.144,36.072,-21.606,-6.531
-0.396,0.684,-0.154,31.982,-21.423,-2.014
-0.375,0.681,-0.153,26.794,-20.752,0.977
-0.356,0.681,-0.142,21.667,-19.775,3.174
-0.340,0.683,-0.124,17.883,-18.799,4.395
-0.328,0.690,-0.101,15.320,-18.616,4.883
-0.319,0.699,-0.081,14.221,-18.860,5.066
-0.313,0.710,-0.062,15.137,-19.653,5.554
-0.309,0.722,-0.044,17.273,-20.996,6.226
-0.313,0.720,-0.024,20.386,-22.949,6.775
-0.322,0.714,0.003,23.804,-25.269,6.592
-0.336,0.733,0.005,27.527,-28.809,5.432
-0.356,0.748,-0.007,30.579,-32.227,4.944
-0.372,0.757,-0.011,33.203,-35.400,5.920
-0.393,0.759,-0.000,33.813,-39.063,8.911
-0.408,0.756,0.028,33.203,-43.579,12.939
-0.415,0.766,0.054,31.128,-49.316,17.029
-0.438,0.770,0.073,29.114,-55.115,20.752
-0.469,0.761,0.087,27.222,-60.120,23.376
-0.497,0.769,0.092,25.696,-63.660,24.902
-0.517,0.799,0.089,24.658,-65.491,26.367
-0.535,0.832,0.073,25.146,-64.697,29.114
-0.535,0.847,0.050,26.978,-61.768,33.203
-0.529,0.870,0.028,28.809,-57.068,38.208
-0.509,0.880,0.017,30.945,-51.758,44.312
-0.469,0.873,0.030,32.959,-46.936,50.293
-0.439,0.859,0.033,34.241,-43.762,55.176
-0.418,0.842,0.020,33.875,-42.786,57.800
-0.407,0.837,0.001,32.654,-42.847,59.204
-0.404,0.843,-0.009,31.616,-43.884,60.608
-0.408,0.860,-0.012,30.762,-45.959,62.256
-0.423,0.890,-0.015,30.579,-48.645,64.697
-0.437,0.915,-0.022,31.128,-51.514,68.359
-0.443,0.944,-0.033,32.043,-53.589,72.754
-0.446,0.983,-0.033,32.593,-54.443,77.881
-0.433,1.009,-0.020,31.860,-53.101,82.886
-0.410,1.017,-0.005,31.372,-50.781,86.060
-0.387,1.015,0.010,32.288,-48.035,86.243
-0.368,1.025,0.024,35.217,-45.349,83.313
-0.349,1.021,0.043,39.490,-43.213,77.515
-0.336,1.004,0.064,44.006,-43.030,69.397
-0.342,0.999,0.082,48.218,-44.800,59.937
-0.357,1.017,0.088,52.551,-47.913,50.781
-0.389,1.047,0.080,56.580,-51.636,43.274
-0.427,1.077,0.081,61.523,-54.138,38.086
-0.451,1.099,0.070,66.711,-55.542,35.034
-0.466,1.110,0.056,72.083,-55.908,34.302
-0.471,1.111,0.059,77.332,-55.847,35.706
-0.459,1.097,0.081,81.970,-56.152,38.513
-0.443,1.074,0.100,85.571,-57.739,41.260
-0.421,1.053,0.117,88.501,-60.852,43.213
-0.405,1.048,0.129,89.661,-64.941,44.312
-0.398,1.040,0.131,89.417,-69.336,44.922
-0.371,1.037,0.130,87.830,-72.998,44.922
-0.365,1.027,0.118,85.388,-75.378,44.373
-0.362,1.023,0.117,82.336,-75.745,43.335
-0.367,1.012,0.104,77.759,-74.097,42.236
-0.377,1.007,0.090,72.083,-70.618,41.077
-0.386,1.011,0.077,66.101,-65.674,39.307
-0.394,1.018,0.071,60.364,-58.899,37.476
-0.402,0.995,0.035,54.993,-51.636,35.522
-0.412,1.038,0.038,49.805,-43.091,32.104
-0.412,1.087,0.063,44.495,-34.851,30.090
-0.410,1.087,0.103,40.588,-28.809,31.616
-0.396,1.042,0.141,38.818,-25.513,34.851
-0.373,0.986,0.166,37.109,-25.085,36.743
-0.360,0.953,0.178,34.607,-26.489,36.255
-0.365,0.951,0.173,32.043,-28.381,34.485
-0.372,0.961,0.149,29.968,-29.419,32.837
-0.377,0.960,0.119,29.663,-28.870,31.860
-0.381,0.948,0.094,30.396,-26.306,31.494
-0.388,0.930,0.072,30.945,-22.705,30.701
-0.396,0.916,0.058,30.884,-18.494,29.907
-0.405,0.914,0.056,29.541,-14.648,28.992
-0.412,0.914,0.058,27.344,-11.658,28.198
-0.420,0.926,0.058,24.231,-9.766,27.893
-0.421,0.941,0.056,21.057,-8.606,27.710
-0.416,0.966,0.059,18.433,-8.057,28.076
-0.408,0.977,0.067,17.700,-8.362,29.419
-0.411,1.002,0.077,17.883,-9.460,31.189
-0.392,0.986,0.100,17.395,-11.292,33.630
-0.381,0.960,0.116,17.944,-13.855,35.706
-0.385,0.940,0.119,18.127,-16.724,36.621
-0.387,0.938,0.109,17.578,-19.104,36.499
-0.386,0.947,0.094,16.907,-20.508,35.950
-0.386,0.961,0.070,16.907,-20.142,35.400
-0.385,0.968,0.051,16.541,-18.066,35.645
-0.383,0.979,0.045,15.930,-15.259,35.645
-0.375,0.991,0.048,14.587,-12.573,34.973
-0.359,1.023,0.061,12.756,-10.193,33.264
-0.371,1.009,0.030,11.169,-8.606,30.273
-0.386,1.065,0.085,9.827,-6.714,26.489
-0.375,1.046,0.100,7.812,-5.981,24.597
-0.375,1.060,0.082,6.958,-6.653,21.667
-0.378,1.094,0.090,7.202,-6.653,19.043
-0.372,1.105,0.097,7.385,-5.920,18.860
-0.361,1.094,0.091,6.653,-4.639,20.447
-0.344,1.071,0.088,5.615,-2.563,22.095
-0.334,1.047,0.084,5.005,0.488,22.705
-0.337,1.033,0.073,4.150,4.761,21.545
-0.361,1.024,0.062,2.258,9.277,18.616
-0.416,1.027,0.061,-0.305,13.733,13.733
-0.483,1.066,0.065,-4.028,17.456,7.690
-0.548,1.140,0.052,-8.606,20.081,1.648
-0.601,1.220,0.035,-13.000,22.278,-1.770
-0.641,1.283,0.032,-18.005,24.231,-1.953
-0.664,1.325,0.031,-25.574,26.306,0.427
-0.647,1.350,0.048,-33.203,28.320,3.479
-0.602,1.368,0.096,-38.879,29.785,5.127
-0.544,1.365,0.146,-42.664,30.212,4.517
-0.492,1.350,0.200,-44.556,29.419,1.709
-0.435,1.311,0.251,-44.006,27.344,-2.747
-0.383,1.238,0.289,-40.039,24.109,-10.071
-0.349,1.151,0.323,-33.936,19.531,-21.240
-0.334,1.077,0.342,-27.710,13.977,-35.706
-0.353,1.028,0.332,-21.423,8.606,-51.880
-0.401,1.002,0.285,-15.686,4.700,-68.420
-0.472,0.997,0.223,-10.315,3.784,-83.435
-0.553,1.004,0.158,-6.897,6.287,-95.886
-0.627,1.014,0.116,-5.310,12.207,-105.042
-0.692,1.030,0.084,-5.554,19.226,-110.535
-0.730,1.051,0.061,-7.080,26.794,-112.183
-0.746,1.056,0.059,-8.972,34.180,-110.657
-0.741,1.052,0.075,-11.536,40.344,-106.323
-0.723,1.049,0.095,-14.893,44.312,-100.586
-0.697,1.039,0.121,-17.822,45.532,-95.215
-0.663,1.023,0.156,-19.653,44.434,-91.064
-0.632,1.010,0.189,-21.057,41.138,-88.623
-0.607,1.002,0.213,-21.729,36.011,-87.830
-0.590,0.993,0.219,-21.057,30.396,-89.050
-0.578,0.975,0.211,-18.860,25.146,-91.858
-0.580,0.958,0.197,-16.235,21.301,-95.825
-0.592,0.956,0.182,-13.123,18.616,-100.098
-0.603,0.957,0.174,-9.949,17.212,-103.699
-0.612,0.950,0.171,-7.019,16.235,-105.713
-0.621,0.937,0.164,-4.883,15.320,-106.018
-0.630,0.925,0.156,-3.784,14.343,-105.286
-0.642,0.920,0.151,-3.418,13.977,-103.821
-0.643,0.925,0.150,-2.563,13.611,-101.624
-0.637,0.914,0.156,-1.099,13.306,-98.328
-0.639,0.899,0.163,0.427,12.695,-94.482
-0.630,0.888,0.167,1.404,11.658,-91.003
-0.620,0.880,0.166,2.563,10.193,-88.074
-0.614,0.871,0.165,4.089,8.423,-85.693
-0.602,0.861,0.164,5.493,6.409,-83.557
-0.592,0.854,0.159,7.141,4.395,-81.726
-0.585,0.848,0.150,8.118,2.563,-80.627
-0.578,0.840,0.143,8.606,0.916,-79.529
-0.570,0.826,0.136,8.606,-0.244,-78.735
-0.563,0.809,0.135,8.423,-0.854,-77.698
-0.561,0.786,0.140,7.874,-1.465,-76.599
-0.561,0.766,0.137,7.446,-1.770,-75.195
-0.564,0.746,0.118,6.470,-1.831,-73.242
-0.566,0.730,0.092,4.639,-1.038,-70.007
-0.544,0.723,0.061,2.502,1.587,-65.857
-0.521,0.711,0.036,0.488,5.859,-60.425
-0.502,0.697,0.023,-0.854,11.292,-54.077
-0.479,0.683,0.016,-2.136,16.602,-47.668
-0.447,0.666,0.013,-2.869,20.935,-41.626
-0.422,0.649,0.007,-3.723,24.048,-36.438
-0.404,0.637,-0.005,-4.700,26.123,-31.677
-0.397,0.634,-0.031,-5.188,27.100,-27.527
-0.397,0.632,-0.065,-5.676,27.527,-23.926
-0.401,0.635,-0.092,-6.348,27.710,-19.836
-0.401,0.634,-0.113,-7.446,27.771,-15.015
-0.397,0.634,-0.125,-9.094,26.978,-9.827
-0.396,0.638,-0.132,-11.169,25.696,-4.639
-0.396,0.650,-0.126,-13.123,23.560,0.366
-0.392,0.653,-0.107,-14.709,20.203,6.042
-0.385,0.648,-0.075,-15.564,15.564,12.146
-0.385,0.642,-0.035,-16.235,8.911,17.822
-0.390,0.643,0.006,-17.334,0.793,22.644
-0.398,0.646,0.042,-18.066,-8.118,26.428
-0.413,0.653,0.067,-18.066,-18.066,29.907
-0.425,0.660,0.073,-16.907,-26.978,32.593
-0.433,0.663,0.069,-16.174,-33.447,35.461
-0.442,0.666,0.064,-15.625,-37.048,38.757
-0.455,0.676,0.053,-15.198,-38.391,42.297
-0.477,0.700,0.038,-15.015,-37.292,46.143
-0.519,0.733,0.026,-14.465,-34.546,50.049
-0.593,0.779,0.029,-14.343,-31.250,53.894
-0.691,0.842,0.061,-15.198,-28.748,56.641
-0.787,0.919,0.121,-17.212,-29.175,57.800
-0.847,1.007,0.185,-20.203,-33.142,57.434
-0.854,1.092,0.236,-23.071,-39.856,58.594
-0.857,1.141,0.261,-25.085,-47.485,63.416
-0.802,1.155,0.296,-25.513,-54.199,70.435
-0.716,1.170,0.298,-23.743,-59.021,77.759
-0.607,1.180,0.302,-16.296,-61.279,85.327
-0.491,1.168,0.302,-4.700,-61.157,93.384
-0.380,1.109,0.301,8.789,-60.303,101.318
-0.300,1.027,0.293,22.156,-59.631,106.750
-0.260,0.952,0.275,34.607,-59.937,106.628
-0.263,0.904,0.247,45.044,-61.218,100.830
-0.317,0.879,0.206,52.795,-62.927,91.187
-0.390,0.880,0.162,57.556,-65.369,80.078
-0.464,0.905,0.118,58.777,-67.810,70.129
-0.536,0.924,0.094,57.068,-69.824,63.904
-0.599,0.937,0.081,52.979,-71.228,61.768
-0.640,0.963,0.082,46.326,-72.205,62.561
-0.667,1.011,0.101,38.452,-72.388,65.491
-0.670,1.064,0.137,31.860,-72.327,70.984
-0.639,1.104,0.185,29.114,-71.716,78.430
-0.584,1.115,0.234,30.396,-71.472,85.449
-0.522,1.110,0.272,35.339,-72.021,89.417
-0.462,1.096,0.305,42.725,-73.975,89.783
-0.414,1.064,0.332,51.514,-77.148,86.914
-0.380,1.022,0.350,60.120,-82.458,81.787
-0.361,0.989,0.357,68.237,-89.172,75.928
-0.361,0.973,0.343,75.317,-96.863,69.946
-0.355,0.945,0.302,80.688,-104.004,65.674
-0.355,0.912,0.256,83.679,-108.643,63.538
-0.377,0.907,0.196,84.534,-109.680,62.317
-0.401,0.971,0.130,83.923,-107.178,62.439
-0.371,0.899,-0.001,81.726,-101.868,65.552
-0.400,0.964,-0.000,74.219,-92.224,69.214
-0.409,0.903,0.065,63.599,-77.637,74.036
-0.370,0.906,0.097,54.016,-65.674,76.660
-0.334,0.934,0.113,45.776,-56.824,74.280
-0.328,0.982,0.157,37.659,-49.866,70.557
-0.323,1.106,0.188,29.724,-45.044,67.932
-0.282,1.163,0.227,25.696,-41.321,66.956
-0.232,1.208,0.289,25.818,-38.879,64.575
-0.194,1.242,0.332,27.771,-38.391,60.120
-0.149,1.218,0.364,30.396,-39.978,54.138
-0.125,1.217,0.344,35.217,-42.969,47.058
-0.116,1.223,0.370,41.199,-45.349,39.551
-0.104,1.247,0.408,47.058,-49.072,33.630
-0.077,1.255,0.399,51.636,-55.359,29.785
-0.095,1.277,0.366,53.345,-62.012,27.344
-0.085,1.217,0.339,52.368,-66.162,28.748
-0.055,1.124,0.296,49.316,-66.589,30.212
-0.057,1.113,0.264,44.312,-62.317,27.100
-0.067,1.132,0.240,39.429,-53.894,22.644
-0.075,1.178,0.208,34.485,-42.664,19.958
-0.080,1.182,0.185,31.250,-29.480,19.531
-0.073,1.146,0.174,30.823,-15.259,21.179
-0.063,1.094,0.177,31.677,-2.014,22.766
-0.059,1.027,0.175,31.921,9.460,22.522
-0.054,0.969,0.183,30.273,19.104,20.081
-0.064,0.948,0.185,26.855,25.879,15.747
-0.080,0.953,0.187,21.667,30.640,10.254
-0.097,0.986,0.182,17.029,33.752,4.944
-0.121,1.038,0.173,14.099,36.011,0.549
-0.149,1.091,0.169,12.512,37.598,-2.502
-0.168,1.116,0.162,12.939,38.330,-4.639
-0.179,1.113,0.160,14.160,38.574,-5.859
-0.190,1.105,0.169,14.771,37.720,-7.751
-0.203,1.094,0.178,14.465,35.828,-10.193
-0.221,1.084,0.187,13.672,33.142,-13.428
-0.233,1.082,0.195,12.085,30.090,-17.151
-0.278,1.096,0.186,10.071,27.527,-21.362
-0.348,1.116,0.185,8.545,25.818,-26.428
-0.430,1.146,0.176,7.263,24.841,-31.860
-0.530,1.200,0.132,5.432,24.658,-37.109
-0.640,1.299,0.071,1.282,25.818,-40.649
-0.725,1.401,0.008,-2.441,29.053,-40.039
-0.780,1.474,-0.059,-5.005,33.936,-34.485
-0.805,1.501,-0.077,-7.568,39.856,-25.024
-0.807,1.427,-0.065,-10.132,44.861,-14.221
-0.769,1.327,-0.071,-15.747,48.035,-6.531
-0.724,1.226,-0.063,-24.658,49.377,-4.089
-0.662,1.148,-0.021,-32.654,49.011,-6.653
-0.580,1.045,0.024,-38.818,46.814,-13.977
-0.528,0.973,0.054,-42.480,42.969,-25.452
-0.530,0.956,0.007,-41.199,38.940,-38.879
-0.515,0.907,-0.025,-37.048,36.560,-50.720
-0.533,0.854,0.019,-33.203,36.255,-59.326
-0.563,0.796,0.025,-27.588,33.997,-65.369
-0.594,0.757,0.019,-23.132,30.090,-69.214
-0.635,0.745,0.006,-20.813,25.146,-71.411
-0.701,0.770,-0.008,-19.958,20.447,-72.876
-0.775,0.820,-0.044,-20.081,16.724,-74.097
-0.868,0.882,-0.122,-23.804,15.076,-74.829
-0.906,1.020,-0.143,-31.921,18.005,-75.439
-0.915,1.076,-0.103,-36.499,24.231,-74.524
-0.886,1.073,-0.034,-36.316,28.687,-73.181
-0.870,1.068,0.009,-36.255,26.489,-73.425
-0.830,1.044,0.022,-31.738,18.982,-75.073
-0.789,1.046,0.049,-25.635,9.949,-77.759
-0.758,1.023,0.067,-18.982,1.160,-79.712
-0.721,0.972,0.092,-11.658,-7.141,-81.116
-0.702,0.918,0.073,-4.272,-15.747,-83.374
-0.698,0.873,0.024,2.197,-23.132,-85.815
-0.700,0.830,-0.020,5.920,-27.954,-87.585
-0.696,0.799,-0.044,6.592,-30.273,-87.891
-0.688,0.771,-0.063,4.272,-31.128,-87.219
-0.682,0.751,-0.086,0.183,-30.579,-85.754
-0.669,0.747,-0.088,-4.395,-28.809,-84.229
-0.652,0.738,-0.069,-8.423,-27.039,-82.031
-0.639,0.736,-0.048,-12.024,-25.635,-79.224
-0.638,0.776,-0.038,-15.015,-24.841,-76.294
-0.640,0.805,-0.021,-15.564,-24.048,-71.472
-0.625,0.800,0.003,-13.550,-23.987,-64.575
-0.591,0.761,0.025,-11.719,-24.841,-57.251
-0.571,0.735,0.044,-10.376,-26.733,-51.392
-0.560,0.731,0.042,-8.850,-29.541,-47.791
-0.549,0.710,0.034,-6.104,-32.776,-45.593
-0.549,0.713,0.021,-4.028,-35.156,-43.884
-0.542,0.733,0.001,-4.089,-36.499,-41.504
-0.542,0.725,-0.005,-4.395,-36.621,-37.903
-0.535,0.710,-0.019,-4.456,-36.316,-33.691
-0.521,0.710,-0.032,-5.859,-35.034,-29.907
-0.506,0.714,-0.038,-7.690,-32.776,-25.879
-0.495,0.719,-0.033,-9.094,-30.457,-22.095
-0.479,0.718,-0.019,-9.338,-28.625,-18.555
-0.467,0.735,-0.001,-8.728,-28.015,-15.381
-0.456,0.738,0.020,-8.118,-29.114,-12.085
-0.450,0.740,0.038,-7.080,-31.921,-8.667
-0.450,0.732,0.052,-4.700,-36.499,-5.249
-0.455,0.724,0.073,-1.953,-41.931,-2.686
-0.464,0.719,0.081,0.488,-48.340,0.061
-0.470,0.713,0.073,2.808,-54.565,3.296
-0.474,0.711,0.060,5.005,-59.265,7.263
-0.481,0.719,0.052,6.165,-61.646,11.475
-0.485,0.725,0.042,6.348,-62.500,16.174
-0.483,0.732,0.032,5.859,-61.584,21.057
-0.481,0.737,0.031,4.517,-59.448,25.635
-0.483,0.750,0.041,3.235,-57.007,29.968
-0.482,0.770,0.058,2.258,-54.810,33.569
-0.481,0.788,0.080,2.869,-53.162,37.170
-0.470,0.797,0.103,4.517,-53.101,40.283
-0.461,0.808,0.119,6.226,-54.321,42.725
-0.455,0.826,0.132,7.812,-56.763,44.434
-0.452,0.840,0.141,9.338,-59.570,45.349
-0.448,0.844,0.154,10.437,-62.622,45.471
-0.459,0.842,0.159,9.399,-65.369,45.166
-0.484,0.851,0.160,5.310,-67.078,44.434
-0.543,0.887,0.164,-1.770,-66.528,42.786
-0.661,0.966,0.196,-8.179,-64.026,39.368
-0.813,1.061,0.232,-11.353,-61.340,35.034
-0.895,1.151,0.262,-11.169,-60.181,31.616
-0.909,1.236,0.250,-6.836,-59.509,30.823
-0.878,1.293,0.228,1.404,-58.594,35.034
-0.791,1.289,0.236,12.573,-57.434,44.861
-0.661,1.209,0.246,23.193,-57.678,58.472
-0.516,1.086,0.246,30.884,-60.059,71.411
-0.390,0.985,0.254,35.706,-64.331,80.566
-0.311,0.913,0.245,39.551,-69.641,84.595
-0.265,0.930,0.313,43.213,-74.402,84.229
-0.286,0.900,0.224,47.302,-80.872,81.543
-0.341,0.800,0.052,51.575,-86.487,76.050
-0.395,0.791,0.016,57.373,-82.581,61.707
-0.453,0.870,0.065,58.411,-74.951,46.387
-0.511,0.915,0.066,53.406,-70.801,37.781
-0.552,0.931,0.080,46.692,-70.374,36.560
-0.575,0.926,0.070,40.405,-71.533,39.917
-0.585,0.954,0.067,34.302,-71.655,44.739
-0.568,0.987,0.096,29.846,-70.251,51.025
-0.525,1.011,0.161,29.053,-68.604,58.350
-0.462,1.010,0.234,32.471,-68.787,64.758
-0.384,0.974,0.282,39.307,-71.899,67.932
-0.318,0.936,0.294,46.936,-77.393,67.017
-0.276,0.889,0.277,55.359,-83.862,62.500
-0.260,0.872,0.255,63.232,-89.355,55.603
-0.251,0.857,0.233,69.031,-94.299,48.523
-0.251,0.866,0.196,73.486,-97.534,42.114
-0.257,0.878,0.159,77.698,-99.060,37.048
-0.263,0.905,0.111,80.627,-98.206,33.813
-0.257,0.941,0.057,82.581,-95.276,32.410
-0.291,0.996,-0.015,84.412,-89.783,32.043
-0.310,0.957,0.002,84.778,-82.458,33.020
-0.306,0.940,0.031,82.642,-77.698,34.912
-0.304,0.952,0.086,77.515,-77.332,35.034
-0.325,0.974,0.147,70.679,-81.848,34.912
-0.333,0.990,0.181,62.622,-90.027,35.156
-0.336,0.983,0.214,55.725,-98.999,36.743
-0.340,0.997,0.242,50.537,-105.896,37.964
-0.339,1.019,0.239,47.729,-109.558,38.269
-0.333,1.016,0.227,47.302,-108.826,38.635
-0.337,1.065,0.225,48.462,-103.821,39.063
-0.327,1.026,0.128,50.842,-95.703,40.527
-0.321,1.022,0.101,52.795,-83.374,40.649
-0.331,1.042,0.092,54.810,-68.237,40.039
-0.319,1.055,0.108,54.932,-54.810,39.673
-0.305,1.030,0.114,52.612,-45.410,41.321
-0.301,0.999,0.115,48.828,-39.001,42.175
-0.302,1.011,0.109,43.762,-34.485,40.894
-0.304,1.047,0.106,38.696,-30.640,39.063
-0.302,1.061,0.107,34.912,-26.978,38.574
-0.302,1.073,0.103,33.020,-23.682,38.574
-0.293,1.083,0.098,32.593,-20.630,38.513
-0.280,1.095,0.081,33.386,-17.700,38.086
-0.272,1.097,0.062,34.851,-15.015,38.147
-0.263,1.094,0.057,36.438,-12.024,37.842
-0.252,1.074,0.061,37.903,-9.644,37.231
-0.248,1.074,0.063,39.124,-8.057,36.377
-0.237,1.070,0.081,39.795,-7.324,34.302
-0.224,1.079,0.070,40.283,-8.667,31.677
-0.229,1.094,0.054,40.955,-10.559,28.687
-0.231,1.099,0.048,41.931,-12.329,26.123
-0.224,1.089,0.057,43.701,-14.465,23.499
-0.231,1.088,0.066,44.312,-17.212,20.081
-0.242,1.083,0.087,43.762,-20.630,15.625
-0.249,1.070,0.091,44.312,-24.292,11.475
-0.254,1.056,0.085,45.227,-27.466,8.606
-0.265,1.048,0.058,45.654,-29.114,6.836
-0.274,1.039,0.026,46.021,-28.564,5.188
-0.279,1.020,0.011,46.387,-26.062,4.272
-0.283,0.995,0.003,45.288,-22.827,2.991
-0.292,0.967,-0.008,42.114,-19.775,1.770
-0.301,0.948,-0.024,36.621,-16.541,0.732
-0.316,0.949,-0.056,29.358,-13.794,0.549
-0.331,0.956,-0.098,19.287,-10.437,1.953
-0.339,0.962,-0.114,8.240,-5.981,4.028
-0.365,0.980,-0.110,-1.587,-2.075,4.700
-0.427,0.986,-0.100,-9.888,1.404,4.517
-0.497,0.993,-0.058,-18.616,3.906,3.479
-0.558,1.037,-0.017,-27.893,4.395,1.587
-0.609,1.109,0.001,-35.645,3.967,0.671
-0.648,1.189,-0.010,-39.734,4.639,2.808
-0.656,1.251,-0.018,-42.175,7.568,8.240
-0.640,1.278,-0.060,-43.945,13.062,15.808
-0.608,1.284,-0.123,-46.692,20.447,23.865
-0.513,1.235,-0.082,-51.514,28.381,32.043
-0.415,1.179,0.022,-60.608,32.959,37.598
-0.366,1.167,0.107,-69.031,32.837,35.828
-0.357,1.138,0.160,-71.655,28.931,26.367
-0.365,1.117,0.223,-69.885,23.132,11.597
-0.398,1.067,0.220,-67.017,16.907,-4.150
-0.472,1.018,0.200,-63.721,12.451,-21.912
-0.570,1.002,0.180,-63.171,11.414,-41.199
-0.643,1.016,0.144,-66.650,13.733,-57.739
-0.694,1.026,0.121,-72.998,18.677,-68.542
-0.745,1.041,0.109,-81.299,26.306,-73.975
-0.796,1.120,0.086,-90.942,36.255,-75.012
-0.811,1.191,0.115,-99.304,48.096,-70.129
-0.796,1.202,0.142,-104.004,59.265,-58.594
-0.745,1.146,0.173,-108.215,68.115,-44.373
-0.667,1.089,0.233,-112.305,74.219,-33.508
-0.578,1.022,0.302,-114.502,76.416,-30.396
-0.517,0.980,0.319,-111.328,75.195,-36.621
-0.484,0.969,0.322,-103.882,72.876,-49.866
-0.482,0.964,0.331,-93.201,69.702,-66.162
-0.510,0.946,0.323,-80.505,65.125,-82.397
-0.548,0.922,0.299,-68.604,59.143,-96.741
-0.589,0.899,0.271,-58.533,53.162,-107.544
-0.621,0.871,0.259,-50.720,47.485,-114.624
-0.640,0.843,0.244,-44.373,42.297,-118.896
-0.645,0.829,0.219,-38.208,38.879,-122.192
-0.653,0.815,0.188,-32.776,38.086,-124.390
-0.672,0.814,0.154,-28.809,39.978,-124.939
-0.685,0.819,0.135,-26.123,43.579,-123.718
-0.679,0.808,0.119,-24.536,47.729,-119.873
-0.678,0.802,0.091,-25.269,50.964,-113.770
-0.679,0.797,0.080,-27.344,53.589,-106.812
-0.661,0.793,0.081,-28.809,54.932,-100.464
-0.646,0.794,0.079,-30.457,54.321,-94.543
-0.640,0.793,0.072,-32.776,52.063,-88.867
-0.628,0.797,0.072,-35.278,48.645,-83.496
-0.614,0.819,0.090,-37.354,44.312,-77.881
-0.620,0.854,0.102,-39.612,38.635,-71.594
-0.619,0.873,0.117,-39.551,32.532,-63.843
-0.586,0.830,0.144,-36.133,27.039,-55.603
-0.566,0.786,0.140,-28.992,22.339,-49.377
-0.557,0.747,0.122,-20.203,18.616,-45.959
-0.553,0.725,0.100,-11.414,15.869,-44.189
-0.541,0.713,0.077,-4.089,13.794,-43.213
-0.531,0.700,0.057,1.831,11.902,-41.626
-0.528,0.686,0.034,5.920,10.010,-39.429
-0.524,0.679,0.008,8.423,8.789,-37.231
-0.521,0.665,-0.027,9.033,8.179,-34.790
-0.520,0.650,-0.053,6.836,7.874,-31.372
-0.506,0.642,-0.029,1.831,7.019,-27.527
-0.504,0.645,-0.024,-2.258,4.700,-23.987
-0.510,0.645,-0.027,-5.066,1.892,-21.240
-0.510,0.659,-0.035,-6.653,0.244,-18.372
-0.512,0.677,-0.046,-7.263,0.732,-14.954
-0.523,0.702,-0.051,-6.775,2.869,-10.986
-0.536,0.721,-0.046,-4.944,5.615,-6.042
-0.547,0.749,-0.042,-2.197,7.629,-0.854
-0.548,0.775,-0.028,0.916,8.789,5.005
-0.547,0.758,-0.020,5.310,8.728,12.024
-0.546,0.741,-0.035,8.057,7.141,18.066
-0.556,0.744,-0.046,8.545,5.798,21.973
-0.573,0.748,-0.058,9.277,4.639,24.597
-0.605,0.759,-0.066,9.521,4.150,26.672
-0.671,0.791,-0.074,7.507,4.089,27.954
-0.777,0.833,-0.077,5.432,3.906,27.832
-0.891,0.904,-0.108,3.723,3.784,26.672
-0.962,1.017,-0.148,1.160,3.723,26.672
-0.948,1.121,-0.141,-0.854,3.845,32.532
-0.865,1.142,-0.069,-1.038,2.991,46.814
-0.775,1.053,0.016,1.587,-0.427,65.979
-0.628,0.931,0.078,7.324,-6.714,82.947
-0.495,0.843,0.095,14.709,-15.076,94.666
-0.402,0.758,0.083,23.987,-22.217,101.807
-0.339,0.696,0.064,34.363,-27.344,104.370
-0.318,0.674,0.043,43.030,-30.273,101.746
-0.364,0.692,-0.013,50.720,-30.823,93.567
-0.425,0.735,-0.094,56.213,-28.564,81.726
-0.497,0.791,-0.163,59.204,-23.376,69.092
-0.582,0.839,-0.217,59.204,-16.541,57.922
-0.660,0.877,-0.263,54.443,-9.216,50.110
-0.704,0.935,-0.301,44.312,-2.319,46.509
-0.708,0.992,-0.297,32.959,4.761,47.913
-0.668,1.036,-0.240,22.034,11.536,54.382
-0.596,1.050,-0.144,11.780,15.625,65.125
-0.512,1.052,-0.062,3.784,15.198,76.721
-0.437,1.047,-0.009,-0.244,12.329,85.754
-0.368,1.048,0.019,0.610,8.606,90.759
-0.312,1.036,0.028,5.859,5.371,91.919
-0.274,1.015,-0.002,13.733,3.052,89.966
-0.252,1.008,-0.056,22.583,2.808,85.327
-0.237,1.014,-0.099,30.762,4.395,79.041
-0.231,1.029,-0.124,37.231,7.507,71.960
-0.249,1.051,-0.154,41.931,10.559,65.552
-0.292,1.080,-0.200,44.495,12.451,61.890
-0.315,1.098,-0.239,43.091,13.367,63.293
-0.310,1.084,-0.223,36.621,12.390,69.824
-0.287,1.057,-0.142,26.428,9.216,78.796
-0.256,1.037,-0.044,15.198,2.869,86.182
-0.246,1.012,-0.001,7.141,-4.395,90.027
-0.249,1.015,-0.004,2.258,-10.315,90.088
-0.257,0.984,-0.035,-0.854,-13.000,88.318
-0.271,1.010,-0.077,-3.113,-12.085,86.060
-0.293,1.039,-0.094,-6.836,-9.460,84.839
-0.319,1.052,-0.085,-11.047,-6.531,85.876
-0.322,1.080,-0.102,-15.137,-5.127,88.135
-0.344,1.125,-0.119,-20.569,-4.639,91.858
-0.373,1.165,-0.115,-27.344,-3.967,96.313
-0.351,1.198,-0.069,-30.945,-2.441,100.220
-0.315,1.160,-0.056,-31.555,-1.038,102.417
-0.330,1.110,-0.058,-29.114,2.563,100.037
-0.380,1.078,-0.037,-24.719,7.812,93.201
-0.409,1.057,0.016,-21.179,13.245,85.022
-0.408,1.043,0.083,-18.677,16.479,77.454
-0.436,1.029,0.090,-16.174,17.639,69.885
-0.467,0.997,0.060,-13.611,18.433,61.646
-0.485,0.958,-0.032,-12.817,21.118,53.406
-0.500,0.937,-0.104,-13.855,26.855,44.983
-0.528,0.917,-0.130,-17.395,34.912,36.499
-0.527,0.853,-0.106,-20.630,43.701,29.602
-0.510,0.814,-0.084,-21.423,50.232,22.095
-0.515,0.798,-0.096,-23.254,53.040,13.611
-0.552,0.794,-0.113,-26.428,53.406,6.714
-0.598,0.816,-0.156,-29.053,52.673,3.357
-0.599,0.788,-0.127,-33.142,51.270,4.578
-0.579,0.728,-0.048,-38.940,48.096,7.935
-0.565,0.690,-0.039,-43.701,42.297,9.766
-0.558,0.682,-0.040,-46.692,36.804,9.155
-0.551,0.691,-0.031,-48.096,33.142,6.409
-0.548,0.703,-0.005,-48.584,31.433,2.808
-0.541,0.722,0.016,-47.974,30.701,-0.732
-0.538,0.737,0.048,-46.204,30.090,-4.456
-0.550,0.753,0.075,-44.189,29.114,-8.972
-0.560,0.787,0.091,-42.114,27.954,-13.916
-0.582,0.804,0.116,-39.490,26.978,-18.433
-0.633,0.815,0.153,-36.438,26.001,-22.888
-0.756,0.863,0.177,-34.180,23.621,-28.931
-0.894,0.952,0.179,-34.912,20.691,-35.828
-0.970,1.027,0.182,-37.476,18.616,-40.527
-0.990,1.102,0.176,-40.344,18.250,-40.649
-0.990,1.158,0.168,-43.396,20.386,-35.034
-0.946,1.183,0.182,-46.936,25.452,-24.902
-0.853,1.171,0.217,-50.171,31.921,-13.367
-0.740,1.128,0.277,-52.185,38.635,-3.235
-0.628,1.063,0.329,-52.856,44.006,2.930
-0.535,0.995,0.361,-52.612,48.279,4.395
-0.486,0.940,0.390,-51.208,51.636,0.732
-0.456,0.884,0.413,-49.744,54.199,-6.592
-0.449,0.767,0.318,-50.720,56.030,-17.334
-0.475,0.716,0.295,-55.969,60.974,-32.104
-0.519,0.733,0.290,-63.904,68.665,-48.340
-0.564,0.783,0.296,-72.815,76.172,-62.134
-0.611,0.820,0.299,-80.627,82.336,-70.251
-0.655,0.875,0.289,-86.670,87.524,-73.730
-0.692,0.968,0.294,-90.881,93.628,-73.792
-0.716,1.037,0.299,-92.773,99.854,-68.604
-0.711,1.049,0.299,-92.285,105.530,-58.960
-0.683,1.046,0.306,-92.957,110.046,-48.218
-0.636,1.042,0.359,-95.520,112.000,-39.307
-0.590,1.040,0.409,-98.145,109.985,-34.363
-0.563,1.043,0.432,-99.060,104.797,-35.217
-0.539,1.054,0.467,-96.802,98.877,-41.138
-0.539,1.059,0.489,-90.454,92.773,-51.086
-0.548,1.039,0.482,-80.444,86.243,-63.354
-0.571,1.026,0.469,-68.359,80.322,-76.660
-0.595,0.998,0.421,-56.641,74.951,-88.562
-0.632,0.980,0.423,-46.326,71.045,-97.473
-0.656,0.941,0.394,-37.842,68.420,-103.027
-0.677,0.909,0.326,-31.799,66.711,-105.896
-0.694,0.899,0.285,-27.222,68.542,-107.483
-0.707,0.888,0.246,-23.743,72.510,-107.788
-0.720,0.872,0.217,-20.874,77.759,-106.445
-0.724,0.857,0.191,-20.264,82.825,-104.065
-0.717,0.848,0.169,-22.583,87.341,-100.952
-0.704,0.844,0.156,-26.611,91.064,-97.595
-0.688,0.844,0.149,-30.945,93.506,-95.093
-0.671,0.840,0.156,-34.363,94.849,-93.689
-0.650,0.834,0.172,-36.194,94.543,-93.567
-0.636,0.834,0.183,-37.170,92.712,-94.543
-0.640,0.844,0.188,-36.987,89.355,-95.581
-0.646,0.843,0.187,-34.607,85.754,-96.130
-0.660,0.859,0.182,-31.311,81.970,-95.703
-0.669,0.857,0.174,-26.733,78.125,-93.689
-0.668,0.833,0.167,-21.301,74.768,-90.210
-0.664,0.802,0.142,-15.808,71.411,-85.876
-0.658,0.773,0.114,-11.719,68.298,-81.299
-0.655,0.754,0.087,-8.728,65.552,-76.782
-0.646,0.732,0.065,-7.202,63.049,-72.144
-0.631,0.704,0.050,-7.263,60.547,-67.627
-0.618,0.688,0.036,-8.362,57.983,-63.354
-0.613,0.687,0.024,-10.925,55.054,-59.143
-0.609,0.694,0.019,-13.367,52.307,-54.565
-0.603,0.706,0.021,-14.893,49.988,-49.255
-0.591,0.715,0.026,-15.076,47.546,-43.457
-0.576,0.727,0.022,-15.198,45.471,-37.720
-0.574,0.740,0.009,-14.526,44.128,-32.043
-0.576,0.759,0.001,-12.085,43.579,-26.978
-0.578,0.769,0.002,-8.484,42.725,-21.851
-0.576,0.760,0.005,-5.066,40.771,-16.418
-0.572,0.742,0.013,-3.235,37.048,-10.925
-0.564,0.725,0.015,-2.808,31.677,-6.104
-0.558,0.719,0.005,-2.930,25.696,-2.380
-0.556,0.719,-0.005,-3.174,20.386,0.000
-0.560,0.716,-0.015,-3.418,16.418,1.831
-0.592,0.726,-0.031,-4.578,13.794,3.357
-0.649,0.757,-0.038,-6.836,11.902,4.272
-0.720,0.796,-0.018,-9.705,10.498,4.822
-0.793,0.837,0.012,-12.085,8.362,5.310
-0.842,0.888,0.051,-12.390,5.066,6.531
-0.848,0.935,0.098,-9.705,0.854,9.338
-0.820,0.920,0.133,-4.395,-3.479,15.503
-0.769,0.854,0.145,2.197,-8.789,23.499
-0.717,0.787,0.135,9.644,-14.282,31.189
-0.681,0.737,0.093,15.991,-18.433,38.025
-0.645,0.679,0.049,18.677,-20.264,45.654
-0.617,0.623,0.010,17.395,-19.836,53.833
-0.590,0.606,-0.035,11.902,-16.968,59.692
-0.575,0.633,-0.083,5.859,-10.803,62.622
-0.582,0.672,-0.136,2.625,-1.892,62.683
-0.600,0.716,-0.184,1.282,9.644,61.584
-0.624,0.755,-0.190,0.793,21.912,60.364
-0.649,0.803,-0.143,0.793,31.555,59.509
-0.672,0.836,-0.076,0.671,35.461,59.509
-0.702,0.867,-0.006,0.977,33.264,59.937
-0.724,0.901,0.045,2.808,26.123,60.730
-0.720,0.917,0.078,6.226,15.076,62.988
-0.710,0.931,0.087,12.024,2.686,66.223
-0.690,0.941,0.074,20.264,-8.545,70.679
-0.666,0.941,0.032,28.992,-17.761,75.806
-0.632,0.942,-0.012,35.950,-22.644,81.177
-0.594,0.949,-0.068,40.100,-24.414,86.792
-0.558,0.944,-0.123,41.748,-23.132,91.431
-0.522,0.933,-0.147,41.504,-19.836,94.788
-0.502,0.935,-0.164,39.246,-16.418,96.375
-0.480,0.930,-0.163,35.522,-13.855,96.252
-0.464,0.935,-0.150,30.579,-12.329,94.666
-0.453,0.940,-0.136,25.330,-11.902,91.980
-0.438,0.935,-0.115,21.240,-12.207,88.928
-0.434,0.934,-0.084,18.311,-13.306,85.510
-0.436,0.940,-0.050,16.357,-15.137,82.275
-0.436,0.950,-0.017,15.808,-17.395,79.529
-0.438,0.962,-0.001,17.090,-20.142,77.515
-0.454,0.985,0.008,20.325,-22.705,75.928
-0.468,1.001,0.013,24.414,-24.902,75.439
-0.469,1.001,0.008,28.503,-26.428,75.745
-0.473,1.000,-0.010,32.349,-27.222,75.989
-0.483,1.004,-0.035,35.095,-27.710,76.599
-0.486,1.013,-0.069,35.156,-27.100,77.881
-0.484,1.020,-0.108,32.471,-25.208,80.017
-0.477,1.017,-0.134,27.649,-21.484,82.336
-0.465,1.016,-0.137,21.851,-16.296,83.923
-0.448,1.032,-0.121,15.503,-10.803,83.679
-0.435,1.030,-0.096,9.155,-6.226,81.604
-0.418,1.034,-0.065,3.723,-2.930,77.209
-0.410,1.038,-0.046,-0.488,-1.465,71.594
-0.409,1.044,-0.028,-3.357,-0.305,65.125
-0.383,1.055,0.008,-5.493,0.488,59.204
-0.420,1.057,-0.045,-6.531,0.366,53.406
-0.423,1.027,0.027,-7.874,1.526,51.086
-0.417,0.965,0.034,-7.690,1.343,50.720
-0.403,0.972,0.018,-8.484,-0.244,47.729
-0.406,0.997,0.010,-10.376,-1.526,45.410
-0.414,0.998,0.004,-12.573,-1.282,44.434
-0.412,0.986,-0.010,-13.062,0.183,42.725
-0.406,0.977,-0.035,-12.817,2.991,39.246
-0.401,0.979,-0.059,-13.489,6.653,35.095
-0.396,0.984,-0.049,-15.076,10.437,30.884
-0.385,0.974,-0.016,-16.235,12.512,26.123
-0.379,0.961,0.028,-16.418,11.597,20.935
-0.371,0.954,0.065,-15.564,7.629,15.076
-0.382,0.957,0.083,-13.733,2.319,9.705
-0.401,0.964,0.096,-10.864,-2.930,5.127
-0.417,0.967,0.095,-7.568,-7.690,1.892
-0.437,0.968,0.092,-3.662,-11.047,-0.183
-0.458,0.972,0.084,-0.427,-12.390,-1.770
-0.475,0.980,0.071,1.831,-11.475,-2.869
-0.487,0.981,0.068,3.113,-8.728,-3.784
-0.489,0.969,0.068,2.991,-4.517,-4.333
-0.485,0.954,0.075,2.075,-0.122,-5.249
-0.478,0.945,0.079,0.488,5.432,-7.141
-0.472,0.937,0.092,-0.366,11.353,-10.132
-0.463,0.929,0.110,0.061,16.541,-13.672
-0.453,0.911,0.121,1.221,20.569,-17.273
-0.462,0.895,0.120,2.075,23.010,-20.447
-0.489,0.893,0.118,2.502,24.414,-23.193
-0.531,0.899,0.112,2.319,25.696,-25.574
-0.598,0.909,0.103,1.221,26.794,-27.893
-0.675,0.943,0.092,-0.854,28.320,-30.640
-0.735,0.999,0.079,-3.784,30.212,-32.654
-0.772,1.059,0.062,-7.019,33.508,-32.043
-0.786,1.125,0.061,-10.132,37.842,-28.015
-0.789,1.171,0.043,-13.123,42.969,-21.362
-0.747,1.192,0.021,-16.602,48.889,-13.062
-0.672,1.182,0.040,-20.569,55.542,-5.493
-0.585,1.157,0.080,-23.315,62.195,-1.709
-0.504,1.135,0.111,-25.696,66.223,-2.014
-0.421,1.095,0.160,-27.100,67.566,-5.554
-0.365,1.026,0.157,-27.771,66.345,-13.123
-0.345,0.960,0.183,-26.917,64.148,-26.917
-0.371,0.940,0.206,-24.475,60.852,-45.593
-0.436,0.944,0.201,-22.278,55.420,-65.063
-0.516,0.965,0.182,-21.057,49.622,-80.200
-0.595,0.989,0.163,-19.775,44.983,-89.844
-0.675,1.011,0.116,-19.348,42.847,-94.666
-0.737,1.016,0.083,-20.874,43.884,-94.177
-0.768,1.018,0.065,-25.269,47.729,-89.905
-0.776,1.021,0.046,-31.189,53.345,-83.923
-0.776,1.034,0.047,-36.865,60.059,-78.003
-0.749,1.058,0.072,-40.955,67.627,-73.303
-0.702,1.070,0.109,-42.542,73.792,-70.374
-0.657,1.066,0.151,-41.748,77.515,-70.068
-0.620,1.055,0.185,-39.124,77.759,-72.327
-0.592,1.045,0.204,-35.400,74.463,-76.294
-0.576,1.029,0.199,-30.457,68.726,-82.031
-0.576,1.009,0.179,-24.780,61.951,-88.257
-0.587,0.991,0.145,-19.409,55.298,-94.543
-0.599,0.974,0.104,-15.869,49.622,-99.854
-0.611,0.961,0.063,-13.916,45.776,-103.882
-0.622,0.945,0.038,-13.062,43.945,-106.506
-0.625,0.921,0.036,-12.817,43.457,-107.910
-0.621,0.895,0.044,-13.062,43.091,-108.521
-0.618,0.873,0.060,-13.489,41.809,-108.459
-0.613,0.853,0.077,-13.672,39.551,-107.788
-0.608,0.836,0.086,-13.062,36.377,-106.689
-0.607,0.820,0.083,-12.268,33.203,-104.919
-0.611,0.811,0.072,-10.925,30.518,-102.783
-0.614,0.808,0.053,-9.399,28.870,-99.976
-0.617,0.807,0.026,-8.240,28.442,-96.558
-0.603,0.803,0.008,-7.080,29.480,-92.712
-0.601,0.791,0.003,-6.409,30.579,-88.074
-0.594,0.775,0.001,-6.958,31.006,-83.740
-0.583,0.766,0.001,-7.935,30.212,-79.468
-0.577,0.762,0.002,-8.850,28.809,-75.500
-0.563,0.748,0.007,-9.277,26.794,-71.350
-0.551,0.734,0.007,-9.949,24.292,-67.383
-0.542,0.715,0.006,-10.010,21.667,-63.293
-0.531,0.695,0.008,-9.277,18.921,-58.716
-0.521,0.679,0.004,-8.606,16.357,-54.016
-0.516,0.667,-0.001,-8.484,14.709,-49.194
-0.511,0.659,-0.007,-8.057,13.428,-44.495
-0.507,0.651,-0.010,-7.202,12.878,-39.612
-0.506,0.641,-0.014,-6.531,12.268,-34.546
-0.500,0.639,-0.023,-5.737,11.780,-29.785
-0.509,0.634,-0.032,-5.127,11.353,-25.146
-0.529,0.636,-0.039,-5.188,10.437,-20.386
-0.548,0.655,-0.047,-5.737,9.399,-15.381
-0.569,0.678,-0.059,-6.165,7.935,-9.705
-0.581,0.699,-0.073,-6.958,6.348,-3.784
-0.579,0.718,-0.090,-8.667,4.761,2.563
-0.571,0.739,-0.094,-11.353,3.784,9.827
-0.555,0.767,-0.077,-13.855,2.991,17.090
-0.527,0.782,-0.058,-14.526,1.892,23.926
-0.501,0.786,-0.053,-13.489,0.671,29.907
-0.481,0.786,-0.051,-10.986,-0.305,34.607
-0.469,0.783,-0.037,-7.690,-1.099,37.598
-0.482,0.787,-0.027,-3.601,-2.380,39.246
-0.545,0.809,-0.023,0.793,-5.249,38.635
-0.665,0.855,-0.017,3.540,-10.498,36.011
-0.802,0.918,-0.004,3.723,-17.639,32.532
-0.899,0.978,0.025,2.563,-26.367,29.846
-0.947,1.028,0.068,1.282,-36.133,29.663
-0.923,1.039,0.116,1.282,-45.471,33.203
-0.844,1.010,0.154,3.052,-53.772,40.833
-0.729,0.947,0.172,6.409,-59.692,50.354
-0.619,0.893,0.157,11.047,-62.256,59.692
-0.544,0.843,0.101,17.456,-60.730,68.054
-0.493,0.775,0.064,25.879,-55.908,75.928
-0.484,0.728,0.032,34.790,-49.622,81.482
-0.498,0.673,-0.010,40.283,-43.518,83.008
-0.556,0.661,-0.054,40.588,-38.574,80.505
-0.631,0.716,-0.083,37.048,-35.034,75.073
-0.700,0.783,-0.097,31.494,-33.569,70.068
-0.758,0.834,-0.100,25.330,-33.936,68.237
-0.784,0.880,-0.081,19.287,-35.400,69.031
-0.782,0.927,-0.041,13.428,-37.231,71.899
-0.765,0.964,0.020,9.399,-39.734,76.904
-0.732,0.990,0.091,8.728,-43.335,83.069
-0.693,1.000,0.146,11.658,-48.218,89.111
-0.653,0.996,0.186,17.761,-53.589,93.567
-0.613,0.978,0.217,26.428,-59.204,96.558
-0.571,0.948,0.232,36.438,-64.514,98.022
-0.536,0.919,0.233,46.448,-69.580,97.656
-0.518,0.891,0.219,55.542,-73.975,95.764
-0.509,0.862,0.180,62.561,-76.843,93.567
-0.505,0.841,0.120,65.918,-77.515,91.553
-0.510,0.830,0.053,65.796,-75.500,90.271
-0.521,0.833,-0.002,62.744,-69.885,90.332
-0.532,0.852,-0.050,57.373,-62.195,91.125
-0.537,0.871,-0.073,51.025,-53.101,92.651
-0.538,0.884,-0.055,44.067,-44.373,94.727
-0.534,0.900,-0.011,37.354,-37.476,96.191
-0.523,0.923,0.037,31.372,-33.936,97.290
-0.507,1.030,0.072,27.527,-33.691,98.145
-0.469,0.944,0.090,26.978,-36.072,99.060
-0.447,1.000,0.129,29.053,-38.757,97.229
-0.436,1.008,0.207,32.593,-41.321,94.055
-0.414,1.052,0.225,39.001,-46.570,90.088
-0.405,1.068,0.218,49.683,-54.016,86.670
-0.386,1.110,0.220,59.692,-60.486,84.045
-0.390,1.187,0.199,68.481,-65.247,82.581
-0.366,1.208,0.174,76.843,-68.726,82.886
-0.330,1.193,0.126,83.374,-71.167,83.923
-0.302,1.187,0.109,84.900,-71.594,83.130
-0.266,1.248,0.111,80.933,-70.740,80.566
-0.274,1.263,0.062,73.853,-68.726,77.209
-0.232,1.272,0.085,64.819,-64.575,75.378
-0.200,1.232,0.055,52.856,-59.204,74.768
-0.184,1.260,0.036,41.138,-51.575,71.411
-0.165,1.274,0.066,31.006,-41.138,66.772
-0.150,1.259,0.108,21.545,-30.334,63.232
-0.130,1.239,0.135,13.306,-21.423,58.838
-0.133,1.206,0.134,7.019,-13.977,53.528
-0.135,1.176,0.141,1.465,-6.897,47.607
-0.138,1.162,0.149,-4.578,-0.793,40.894
-0.146,1.165,0.157,-8.850,5.676,33.813
-0.163,1.172,0.149,-9.949,11.658,26.367
-0.177,1.177,0.138,-8.057,17.822,19.226
-0.205,1.164,0.141,-4.028,23.499,13.184
-0.216,1.139,0.148,-0.610,26.428,8.362
-0.229,1.121,0.146,1.282,26.489,4.211
-0.256,1.116,0.139,3.174,24.170,0.305
-0.272,1.115,0.132,4.761,20.813,-3.479
-0.277,1.114,0.129,6.042,17.517,-7.141
-0.290,1.097,0.128,7.568,14.954,-11.169
-0.298,1.089,0.120,8.972,12.939,-15.076
-0.303,1.070,0.125,9.338,12.207,-19.470
-0.330,1.062,0.125,9.644,12.390,-23.926
-0.381,1.061,0.126,9.399,13.367,-28.320
-0.459,1.049,0.132,7.507,14.648,-32.043
-0.556,1.093,0.115,3.174,16.296,-35.217
-0.639,1.138,0.104,-3.174,19.531,-36.865
-0.695,1.196,0.088,-9.583,25.208,-36.255
-0.718,1.247,0.065,-16.663,32.593,-32.898
-0.707,1.278,0.048,-24.841,42.236,-27.222
-0.662,1.300,0.041,-32.898,53.223,-21.729
-0.585,1.313,0.038,-39.063,64.941,-17.944
-0.495,1.303,0.058,-43.274,75.317,-16.174
-0.414,1.275,0.111,-47.241,82.581,-16.785
-0.350,1.217,0.185,-50.598,84.839,-20.935
-0.308,1.166,0.231,-52.734,82.153,-29.053
-0.325,1.111,0.266,-51.575,75.500,-41.687
-0.350,1.069,0.266,-52.124,66.528,-56.885
-0.422,1.050,0.239,-52.856,59.204,-73.669
-0.505,1.050,0.207,-52.856,55.298,-90.271
-0.613,1.043,0.179,-54.443,55.176,-103.577
-0.697,1.037,0.154,-61.218,58.105,-112.976
-0.745,1.052,0.120,-72.021,63.904,-118.164
-0.785,1.062,0.100,-81.848,72.510,-119.385
-0.830,1.093,0.107,-88.745,83.069,-118.225
-0.847,1.141,0.129,-92.407,93.811,-115.723
-0.832,1.199,0.188,-91.675,103.027,-112.183
-0.803,1.232,0.275,-86.304,108.521,-106.995
-0.755,1.216,0.343,-78.674,107.971,-100.159
-0.710,1.166,0.388,-69.458,102.051,-94.727
-0.666,1.106,0.388,-59.204,91.553,-92.957
-0.641,1.050,0.354,-47.852,79.041,-95.581
-0.630,1.002,0.294,-37.231,67.017,-101.440
-0.645,0.972,0.223,-30.029,57.373,-109.070
-0.669,0.935,0.172,-27.222,51.147,-115.417
-0.686,0.895,0.140,-28.320,47.363,-119.751
-0.703,0.879,0.113,-31.677,45.959,-121.826
-0.712,0.859,0.089,-35.828,46.265,-121.643
-0.705,0.833,0.066,-40.405,48.462,-119.812
-0.698,0.818,0.060,-44.922,51.880,-116.882
-0.684,0.825,0.075,-47.913,56.091,-113.770
-0.659,0.812,0.094,-48.767,59.265,-110.535
-0.647,0.801,0.123,-48.706,60.730,-106.628
-0.642,0.805,0.158,-46.936,59.814,-102.112
-0.630,0.806,0.180,-42.725,56.152,-97.046
-0.612,0.787,0.181,-37.048,50.964,-91.187
-0.593,0.761,0.165,-30.762,44.861,-85.938
-0.579,0.733,0.142,-23.071,38.940,-81.543
-0.575,0.747,0.151,-15.991,33.325,-77.881
-0.572,0.714,0.105,-9.705,27.405,-74.097
-0.566,0.708,0.058,-5.981,22.827,-70.007
-0.554,0.704,0.035,-5.249,20.081,-65.063
-0.545,0.684,0.024,-5.554,18.005,-59.265
-0.535,0.663,0.013,-6.226,16.357,-53.833
-0.527,0.645,0.004,-6.775,15.503,-48.828
-0.523,0.637,-0.012,-8.057,15.198,-43.518
-0.522,0.627,-0.041,-10.193,15.381,-38.086
-0.517,0.616,-0.072,-13.550,16.663,-32.227
-0.519,0.639,-0.083,-17.883,19.043,-26.428
-0.501,0.643,-0.089,-18.738,21.851,-20.996
-0.468,0.615,-0.089,-20.874,23.987,-14.893
-0.445,0.606,-0.080,-24.536,24.780,-10.193
-0.425,0.601,-0.075,-26.855,23.804,-7.080
-0.421,0.642,-0.052,-28.503,20.996,-4.761
-0.424,0.668,-0.012,-27.039,16.479,-1.953
-0.428,0.663,0.013,-21.973,9.888,2.869
-0.436,0.665,-0.004,-16.907,2.258,9.705
-0.422,0.605,-0.031,-13.123,-3.296,17.090
-0.413,0.583,-0.035,-10.986,-7.141,23.437
-0.446,0.573,-0.040,-9.460,-10.925,28.625
-0.460,0.587,-0.054,-9.277,-14.160,33.752
-0.448,0.605,-0.068,-9.644,-15.747,39.063
-0.447,0.620,-0.061,-8.301,-15.625,44.312
-0.433,0.620,-0.048,-4.272,-14.343,48.950
-0.432,0.637,-0.056,-0.671,-13.123,52.612
-0.457,0.678,-0.079,4.089,-11.658,55.481
-0.500,0.727,-0.119,9.827,-9.766,58.228
-0.585,0.774,-0.152,14.404,-7.019,61.340
-0.721,0.874,-0.157,16.663,-4.700,63.049
-0.896,1.018,-0.138,16.724,-4.333,62.195
-1.009,1.144,-0.104,15.564,-6.042,61.707
-1.011,1.275,-0.073,13.123,-10.376,63.904
-0.967,1.328,-0.004,12.634,-17.822,71.045
-0.810,1.263,0.106,15.137,-28.992,81.848
-0.641,1.107,0.167,18.127,-43.823,91.614
-0.539,1.010,0.152,20.752,-60.120,96.252
-0.508,0.932,0.123,23.193,-72.449,96.008
-0.516,0.918,0.080,25.208,-79.712,92.041
-0.544,0.916,0.030,29.114,-81.055,84.106
-0.599,0.930,-0.023,35.339,-77.026,74.707
-0.655,0.950,-0.107,40.405,-69.275,66.833
-0.696,0.975,-0.193,44.556,-57.983,61.646
-0.714,0.984,-0.245,46.936,-45.471,60.120
-0.719,0.995,-0.229,45.044,-34.058,62.439
-0.716,1.048,-0.201,39.978,-27.161,67.688
-0.688,1.106,-0.162,34.790,-25.269,76.599
-0.631,1.112,-0.091,30.518,-27.832,88.562
-0.571,1.079,-0.003,29.114,-34.119,98.450
-0.511,1.044,0.082,31.738,-44.312,102.539
-0.468,1.036,0.160,39.124,-57.434,100.403
-0.436,1.035,0.181,51.331,-72.205,93.933
-0.405,0.997,0.170,65.613,-86.426,85.815
-0.396,0.956,0.152,79.407,-98.267,77.087
-0.402,0.932,0.138,90.088,-107.178,69.519
-0.407,0.930,0.144,98.999,-113.892,64.514
-0.419,0.941,0.116,106.995,-118.835,62.073
-0.427,0.942,0.082,112.915,-120.728,62.744
-0.443,0.930,0.055,116.333,-120.483,65.186
-0.454,0.918,0.047,117.371,-118.103,67.993
-0.442,0.905,0.038,115.356,-114.624,70.435
-0.432,0.878,0.031,111.023,-110.291,72.144
-0.421,0.858,0.016,104.553,-105.164,72.571
-0.431,0.826,-0.011,95.276,-99.304,71.960
-0.434,0.835,-0.021,81.726,-93.323,71.167
-0.461,0.852,-0.017,66.650,-87.646,69.702
-0.482,0.934,-0.002,51.147,-82.031,68.115
-0.505,0.969,0.032,39.185,-75.989,68.970
-0.499,0.980,0.062,28.259,-70.374,72.327
-0.456,1.003,0.104,18.311,-63.660,75.623
-0.426,0.996,0.121,11.719,-55.908,76.965
-0.400,1.013,0.165,9.521,-47.485,77.087
-0.362,1.025,0.199,7.751,-40.344,78.796
-0.345,1.042,0.183,8.179,-35.645,81.055
-0.327,1.072,0.181,9.888,-30.762,82.581
-0.295,1.112,0.190,11.230,-25.635,83.557
-0.281,1.144,0.171,11.963,-22.278,84.717
-0.245,1.146,0.141,10.742,-19.958,85.388
-0.234,1.165,0.127,7.385,-17.395,84.961
-0.240,1.226,0.129,3.540,-14.038,83.374
-0.239,1.258,0.136,0.549,-9.827,82.397
-0.215,1.247,0.148,-1.221,-4.883,81.787
-0.197,1.227,0.169,-2.747,-0.549,79.773
-0.185,1.215,0.190,-4.517,3.540,75.989
-0.178,1.196,0.200,-5.798,6.531,70.740
-0.176,1.193,0.208,-6.775,8.545,64.148
-0.168,1.169,0.194,-6.836,9.766,56.580
-0.165,1.135,0.180,-8.057,11.169,47.974
-0.176,1.120,0.157,-11.169,13.367,38.757
-0.219,1.147,0.112,-13.306,16.785,29.114
-0.244,1.153,0.093,-14.404,20.996,21.362
-0.244,1.148,0.081,-15.869,25.146,15.991
-0.272,1.101,0.075,-18.555,28.503,12.085
-0.296,1.064,0.053,-22.400,30.762,8.057
-0.306,1.052,0.040,-26.978,32.898,3.479
-0.315,1.040,0.040,-31.433,35.950,-0.549
-0.320,1.027,0.049,-35.400,39.673,-3.967
-0.325,1.015,0.062,-37.842,43.396,-7.690
-0.331,1.011,0.079,-38.147,46.509,-11.597
-0.346,1.002,0.099,-35.461,48.950,-15.442
-0.386,0.989,0.114,-31.189,50.110,-18.921
-0.471,1.009,0.119,-27.161,49.377,-22.461
-0.575,1.055,0.107,-23.315,47.302,-25.818
-0.681,1.080,0.071,-19.470,45.471,-27.893
-0.753,1.137,0.002,-18.738,45.471,-28.870
-0.798,1.179,-0.055,-22.888,48.340,-27.283
-0.826,1.249,-0.096,-29.114,53.650,-23.682
-0.797,1.285,-0.085,-37.170,61.523,-17.578
-0.720,1.305,-0.076,-46.143,68.542,-12.085
-0.648,1.322,-0.030,-53.894,73.669,-9.155
-0.579,1.301,0.064,-61.035,75.439,-8.240
-0.487,1.251,0.119,-68.115,72.998,-10.071
-0.430,1.192,0.206,-69.214,68.054,-17.151
-0.433,1.127,0.250,-64.941,59.875,-30.151
-0.460,1.081,0.254,-61.035,49.988,-46.753
-0.509,1.072,0.235,-57.739,41.687,-63.599
-0.573,1.089,0.212,-54.749,37.537,-79.346
-0.651,1.063,0.206,-51.392,37.903,-92.102
-0.705,1.065,0.168,-49.927,41.443,-101.501
-0.743,1.058,0.109,-52.307,48.218,-106.873
-0.764,1.048,0.062,-58.594,58.899,-108.643
-0.763,1.061,0.036,-67.749,71.594,-108.398
-0.766,1.107,0.052,-74.890,84.045,-107.910
-0.745,1.141,0.091,-77.332,93.506,-106.812
-0.707,1.136,0.146,-75.684,97.900,-104.431
-0.664,1.116,0.180,-71.960,96.741,-102.600
-0.651,1.110,0.199,-66.956,90.759,-102.966
-0.629,1.108,0.230,-58.716,81.177,-105.347
-0.606,1.081,0.250,-48.462,68.604,-107.910
-0.597,1.040,0.249,-37.903,54.443,-111.023
-0.602,1.008,0.227,-27.954,40.649,-115.112
-0.621,0.982,0.194,-18.738,29.236,-119.751
-0.649,0.954,0.137,-11.292,21.667,-123.962
-0.686,0.933,0.079,-8.057,18.494,-126.465
-0.708,0.909,0.035,-9.155,20.569,-127.258
-0.715,0.886,0.009,-14.038,26.123,-126.587
-0.717,0.867,0.004,-21.606,33.691,-125.183
-0.699,0.860,0.019,-29.541,41.870,-123.291
-0.691,0.852,0.046,-35.889,48.889,-121.338
-0.677,0.841,0.079,-40.161,52.490,-119.141
-0.660,0.833,0.107,-41.931,52.246,-116.699
-0.646,0.822,0.124,-40.894,49.011,-114.014
-0.630,0.811,0.124,-38.086,43.762,-111.206
-0.617,0.799,0.118,-34.058,37.781,-108.398
-0.608,0.793,0.113,-29.663,31.616,-105.164
-0.604,0.794,0.110,-24.658,25.391,-101.929
-0.595,0.780,0.097,-19.165,20.020,-97.595
-0.586,0.767,0.082,-13.672,15.991,-92.590
-0.577,0.747,0.056,-8.728,13.672,-87.769
-0.562,0.717,0.033,-4.517,12.939,-82.825
-0.549,0.685,0.008,-1.404,13.306,-78.186
-0.550,0.658,-0.029,-0.122,14.587,-73.792
-0.541,0.649,-0.059,-0.793,16.846,-69.458
-0.529,0.641,-0.068,-2.625,19.714,-64.758
-0.519,0.625,-0.075,-4.883,22.644,-58.899
-0.510,0.612,-0.079,-7.874,25.085,-52.307
-0.502,0.610,-0.076,-11.047,26.733,-46.143
-0.502,0.623,-0.061,-13.000,27.527,-40.405
-0.500,0.627,-0.052,-13.000,27.222,-34.363
-0.499,0.630,-0.047,-12.756,25.635,-27.710
-0.500,0.632,-0.044,-11.475,23.743,-21.362
-0.501,0.641,-0.042,-8.667,21.362,-15.259
-0.502,0.647,-0.047,-5.249,18.799,-9.583
-0.503,0.655,-0.054,-0.977,16.418,-3.967
-0.502,0.687,-0.058,4.150,13.733,0.916
-0.504,0.703,-0.078,10.132,10.925,6.897
-0.482,0.696,-0.103,14.282,8.240,14.099
-0.460,0.684,-0.120,16.052,6.104,21.118
-0.449,0.683,-0.136,15.686,3.662,27.344
-0.475,0.692,-0.145,14.038,0.977,31.921
-0.533,0.724,-0.136,10.925,-1.770,34.973
-0.631,0.766,-0.102,6.531,-4.578,35.706
-0.743,0.819,-0.051,0.732,-10.498,34.973
-0.863,0.896,-0.018,-2.502,-18.494,33.691
-0.903,0.995,0.039,-3.540,-26.978,33.447
-0.886,1.076,0.093,-1.526,-35.278,38.330
-0.838,1.074,0.129,3.662,-43.274,50.476
-0.743,0.962,0.111,11.353,-50.903,66.650
-0.599,0.852,0.022,18.555,-57.068,80.627
-0.500,0.800,-0.064,19.775,-60.425,91.248
-0.448,0.780,-0.096,14.221,-60.120,100.037
-0.421,0.781,-0.092,6.592,-58.105,106.995
-0.411,0.813,-0.083,-0.366,-55.420,110.840
-0.436,0.826,-0.067,-3.174,-51.514,110.474
-0.467,0.844,-0.049,-3.052,-47.180,105.408
-0.505,0.862,-0.046,-0.488,-43.091,96.069
-0.559,0.866,-0.062,4.028,-39.490,85.449
-0.625,0.911,-0.080,7.996,-36.316,76.599
-0.670,0.974,-0.087,12.512,-33.447,72.571
-0.664,1.023,-0.046,17.822,-31.128,75.012
-0.622,1.044,-0.012,21.729,-31.128,83.252
-0.554,1.041,0.008,25.452,-33.325,93.506
-0.471,1.059,0.034,31.372,-37.415,100.769
-0.399,1.093,0.063,40.039,-42.236,103.455
-0.343,1.111,0.083,50.232,-47.974,103.027
-0.300,1.107,0.087,61.646,-55.054,100.403
-0.279,1.099,0.067,73.486,-62.500,95.703
-0.268,1.098,0.027,83.557,-68.848,89.966
-0.273,1.091,-0.033,90.393,-73.059,84.595
-0.307,1.101,-0.115,91.125,-74.585,81.177
-0.360,1.124,-0.212,83.557,-72.327,81.604
-0.379,1.125,-0.270,67.566,-66.284,88.074
-0.346,1.075,-0.229,44.678,-57.861,99.487
-0.295,1.038,-0.141,22.217,-49.500,109.009
-0.261,1.030,-0.078,4.822,-42.175,113.159
-0.242,1.052,-0.005,-4.395,-34.851,111.755
-0.236,1.087,0.068,-6.470,-28.381,106.323
-0.229,1.122,0.148,-2.319,-23.926,99.854
-0.232,1.134,0.169,6.714,-23.804,93.994
-0.249,1.129,0.141,17.212,-26.001,89.111
-0.258,1.138,0.114,27.039,-28.381,85.083
-0.264,1.141,0.093,35.339,-29.724,82.031
-0.269,1.136,0.078,42.114,-30.884,79.956
-0.266,1.145,0.068,47.668,-32.104,77.759
-0.256,1.145,0.054,53.711,-33.752,74.585
-0.275,1.130,0.016,58.716,-35.217,70.496
-0.299,1.114,-0.041,59.082,-35.889,66.040
-0.299,1.089,-0.092,54.871,-34.912,61.401
-0.299,1.071,-0.132,46.265,-31.799,56.519
-0.304,1.082,-0.166,33.752,-26.001,51.392
-0.336,1.088,-0.190,20.569,-17.334,46.509
-0.342,1.137,-0.179,10.315,-6.836,41.931
-0.349,1.151,-0.146,3.174,2.747,39.795
-0.346,1.139,-0.106,0.122,11.169,38.086
-0.339,1.120,-0.058,0.671,16.785,35.400
-0.343,1.104,-0.013,1.648,18.555,32.166
-0.348,1.091,0.007,2.808,16.296,29.297
-0.355,1.076,0.012,5.920,11.536,27.039
-0.354,1.028,-0.018,10.315,6.287,26.123
-0.359,0.993,-0.055,13.367,2.441,25.452
-0.379,0.963,-0.096,15.259,0.977,24.780
-0.400,0.933,-0.147,15.503,2.014,23.682
-0.413,0.913,-0.205,12.146,5.493,22.217
-0.421,0.888,-0.243,4.944,11.230,21.118
-0.426,0.871,-0.249,-4.639,18.250,19.836
-0.426,0.876,-0.230,-14.465,24.597,18.066
-0.427,0.900,-0.203,-24.292,29.724,16.235
-0.441,0.932,-0.171,-31.738,32.837,14.404
-0.445,0.949,-0.124,-35.095,34.424,13.062
-0.440,0.951,-0.065,-36.011,34.058,12.329
-0.438,0.949,-0.022,-35.156,31.433,11.902
-0.420,0.935,0.015,-32.166,27.283,11.169
-0.415,0.922,0.035,-27.466,22.644,10.132
-0.419,0.906,0.041,-22.400,18.127,9.460
-0.415,0.885,0.039,-17.273,14.954,8.728
-0.430,0.863,0.022,-13.123,12.939,7.568
-0.473,0.851,0.002,-10.925,12.268,6.470
-0.541,0.857,-0.010,-12.512,13.123,5.188
-0.652,0.905,-0.024,-18.616,15.076,3.540
-0.766,0.986,-0.036,-28.503,18.921,2.136
-0.828,1.074,-0.049,-40.588,24.780,2.686
-0.850,1.168,-0.064,-52.185,33.569,6.775
-0.836,1.261,-0.080,-61.768,45.471,13.733
-0.776,1.334,-0.063,-68.054,59.326,21.301
-0.673,1.352,0.002,-69.214,72.510,27.405
-0.549,1.326,0.100,-66.650,81.421,31.250
-0.425,1.262,0.187,-62.195,83.862,31.799
-0.311,1.167,0.252,-56.946,79.468,27.466
-0.240,1.058,0.304,-50.476,69.702,17.212
-0.234,0.979,0.313,-43.457,56.396,1.709
-0.259,0.931,0.291,-35.889,42.053,-16.602
-0.329,0.885,0.238,-28.503,30.090,-35.828
-0.420,0.859,0.169,-25.696,22.705,-52.734
-0.506,0.872,0.115,-28.870,21.301,-64.941
-0.583,0.853,0.104,-36.804,24.719,-71.228
-0.634,0.863,0.102,-44.739,31.006,-73.425
-0.661,0.861,0.135,-52.368,39.856,-70.862
-0.676,0.900,0.157,-59.143,48.828,-66.223
-0.663,0.948,0.191,-63.721,57.068,-59.387
-0.637,0.983,0.207,-64.453,64.575,-51.025
-0.609,1.002,0.195,-62.317,70.374,-43.091
-0.556,1.001,0.196,-59.753,74.097,-36.926
-0.507,0.994,0.213,-57.190,75.134,-33.875
-0.476,0.992,0.231,-52.979,73.120,-34.790
-0.448,0.992,0.230,-48.157,68.176,-39.429
-0.450,0.976,0.215,-42.664,61.890,-46.692
-0.463,0.969,0.183,-36.682,56.213,-55.786
-0.480,0.950,0.153,-31.860,52.124,-65.674
-0.501,0.916,0.134,-29.846,49.988,-74.463
-0.522,0.894,0.126,-30.029,48.889,-81.787
-0.546,0.893,0.131,-31.555,48.584,-86.731
-0.561,0.899,0.140,-32.532,48.218,-89.294
-0.571,0.903,0.144,-31.921,48.523,-89.783
-0.575,0.896,0.155,-29.358,49.011,-88.928
-0.576,0.883,0.165,-25.940,49.255,-87.402
-0.582,0.879,0.169,-22.827,49.011,-86.060
-0.588,0.881,0.176,-20.081,48.157,-84.961
-0.602,0.885,0.168,-17.578,45.715,-84.351
-0.618,0.886,0.140,-16.052,42.297,-84.167
-0.630,0.882,0.115,-15.747,39.246,-84.229
-0.645,0.897,0.109,-17.395,37.354,-84.045
-0.653,0.914,0.105,-19.775,36.377,-82.886
-0.647,0.920,0.104,-21.057,36.316,-80.505
-0.638,0.917,0.094,-21.729,37.170,-77.271
-0.626,0.911,0.090,-21.667,38.086,-73.853
-0.604,0.901,0.094,-21.179,38.818,-70.557
-0.583,0.890,0.101,-20.386,38.635,-67.932
-0.574,0.880,0.107,-18.555,36.987,-66.040
-0.571,0.871,0.109,-16.052,33.875,-64.758
-0.571,0.865,0.112,-13.794,29.846,-63.538
-0.574,0.856,0.115,-12.146,24.963,-61.890
-0.581,0.843,0.109,-9.888,20.081,-60.303
-0.580,0.839,0.093,-7.996,15.808,-58.289
-0.577,0.834,0.069,-6.348,13.489,-55.847
-0.565,0.825,0.047,-5.493,13.550,-52.856
-0.547,0.813,0.024,-5.310,15.930,-49.011
-0.532,0.805,-0.004,-6.042,19.226,-44.617
-0.516,0.799,-0.034,-7.507,23.560,-40.161
-0.500,0.799,-0.050,-8.850,28.015,-35.889
-0.481,0.791,-0.056,-9.949,31.738,-32.104
-0.460,0.793,-0.056,-11.597,33.752,-29.053
-0.452,0.795,-0.057,-12.329,34.119,-26.794
-0.448,0.794,-0.048,-11.719,32.654,-24.719
-0.453,0.799,-0.046,-11.230,30.334,-22.888
-0.465,0.802,-0.058,-10.986,27.466,-21.057
-0.479,0.797,-0.075,-10.681,24.902,-18.677
-0.485,0.783,-0.088,-10.925,23.437,-15.625
-0.483,0.776,-0.095,-12.207,23.315,-12.451
-0.478,0.768,-0.105,-13.550,24.902,-9.033
-0.469,0.755,-0.118,-14.648,27.588,-5.798
-0.472,0.738,-0.133,-15.564,30.579,-3.296
-0.513,0.739,-0.153,-16.846,33.508,-1.343
-0.592,0.777,-0.156,-19.287,35.217,-0.183
-0.698,0.840,-0.151,-22.827,35.339,0.305
-0.793,0.901,-0.147,-26.794,33.264,0.488
-0.850,0.975,-0.125,-28.625,29.419,1.587
-0.851,1.039,-0.074,-26.917,24.536,5.859
-0.798,1.032,-0.007,-23.499,18.677,15.137
-0.699,0.951,0.040,-16.785,11.658,28.259
-0.574,0.861,0.052,-7.141,4.944,40.710
-0.471,0.784,0.028,2.991,0.732,50.293
-0.404,0.701,-0.025,10.864,-0.610,57.861
-0.369,0.650,-0.082,17.639,1.221,61.646
-0.368,0.635,-0.152,21.606,5.920,61.646
-0.401,0.646,-0.223,21.912,12.085,58.838
-0.446,0.664,-0.286,18.738,19.836,54.321
-0.496,0.694,-0.305,12.817,27.405,50.354
-0.552,0.740,-0.302,4.883,33.142,47.852
-0.608,0.795,-0.314,-4.883,36.316,48.462
-0.649,0.839,-0.314,-14.709,38.391,52.063
-0.664,0.896,-0.263,-22.705,39.246,57.800
-0.658,0.964,-0.162,-26.428,37.964,65.735
-0.622,1.004,-0.059,-25.085,32.898,74.158
-0.577,1.001,0.034,-18.311,23.926,81.970
-0.525,0.959,0.088,-7.629,12.756,87.402
-0.487,0.941,0.073,4.578,1.404,89.600
-0.461,0.905,0.053,16.541,-6.958,89.966
-0.437,0.870,0.021,24.475,-12.573,88.440
-0.443,0.826,-0.055,28.931,-14.160,85.205
-0.468,0.823,-0.114,30.823,-10.864,81.970
-0.477,0.822,-0.165,29.724,-3.601,80.566
-0.483,0.825,-0.240,25.208,6.042,81.665
-0.499,0.830,-0.315,18.433,18.433,84.717
-0.505,0.899,-0.336,10.620,31.677,89.722
-0.498,0.974,-0.314,3.723,43.457,97.412
-0.448,0.993,-0.250,-2.319,51.697,106.201
-0.390,0.972,-0.166,-6.836,54.932,112.610
-0.325,0.959,-0.079,-11.475,53.772,113.770
-0.283,0.956,0.021,-14.709,48.645,110.474
-0.287,0.965,0.075,-13.916,40.344,103.516
-0.304,1.007,0.031,-9.216,30.518,94.604
-0.336,1.075,-0.029,-3.418,23.315,87.891
-0.377,1.144,-0.113,0.244,20.874,85.876
-0.380,1.144,-0.150,-1.221,23.499,89.111
-0.359,1.133,-0.159,-7.019,29.724,93.079
-0.320,1.130,-0.150,-15.991,37.659,94.482
-0.288,1.133,-0.119,-25.391,45.776,92.590
-0.266,1.148,-0.071,-32.959,52.612,87.036
-0.260,1.176,-0.018,-37.964,57.373,78.613
-0.261,1.192,0.018,-39.795,59.570,69.153
-0.275,1.188,0.038,-37.720,58.350,59.814
-0.284,1.176,0.036,-34.729,55.725,50.537
-0.299,1.173,0.033,-31.494,53.040,41.809
-0.328,1.171,0.024,-26.733,51.086,34.058
-0.359,1.154,-0.003,-21.729,50.171,27.527
-0.379,1.114,-0.034,-17.883,51.147,21.667
-0.389,1.067,-0.059,-17.212,53.772,15.930
-0.410,1.036,-0.082,-19.287,57.495,9.338
-0.421,1.002,-0.089,-23.071,60.852,2.991
-0.416,0.952,-0.093,-26.489,63.232,-3.052
-0.420,0.899,-0.094,-29.175,63.904,-9.705
-0.429,0.869,-0.097,-31.006,63.232,-16.907
-0.441,0.843,-0.097,-33.325,61.218,-23.499
-0.466,0.823,-0.102,-35.034,57.983,-28.687
-0.499,0.815,-0.112,-36.621,54.932,-32.776
-0.529,0.824,-0.114,-38.757,53.040,-36.072
-0.555,0.828,-0.150,-39.978,51.941,-38.025
-0.591,0.798,-0.183,-41.931,52.429,-38.452
-0.599,0.823,-0.066,-44.922,56.030,-38.757
-0.615,0.834,-0.006,-44.312,55.664,-38.025
-0.618,0.823,-0.004,-37.903,50.903,-36.072
-0.628,0.787,-0.002,-30.457,46.082,-33.569
-0.642,0.772,0.001,-25.269,42.053,-30.945
-0.648,0.751,-0.029,-21.790,38.086,-28.076
-0.649,0.738,-0.096,-22.644,35.583,-24.841
-0.637,0.736,-0.130,-29.846,35.706,-21.057
-0.627,0.730,-0.147,-40.588,38.208,-18.188
-0.605,0.731,-0.110,-51.697,41.809,-17.029
-0.592,0.752,-0.077,-60.303,45.654,-17.761
-0.594,0.778,-0.053,-64.087,49.011,-20.203
-0.596,0.787,-0.009,-62.012,52.490,-23.315
-0.608,0.786,0.043,-57.556,55.054,-26.489
-0.628,0.786,0.090,-51.697,54.871,-28.687
-0.656,0.764,0.127,-44.006,52.124,-29.358
-0.703,0.766,0.142,-36.011,47.180,-28.748
-0.773,0.798,0.140,-28.259,42.053,-27.771
-0.852,0.839,0.118,-23.743,38.330,-26.245
-0.910,0.875,0.081,-22.705,37.292,-24.109
-0.939,0.921,0.045,-23.987,39.978,-22.034
-0.931,0.985,0.026,-27.893,46.021,-20.325
-0.908,1.037,0.028,-33.813,53.711,-17.334
-0.863,1.055,0.045,-39.307,61.584,-14.282
-0.802,1.062,0.080,-42.786,68.054,-12.451
-0.741,1.070,0.129,-42.908,71.472,-11.963
-0.678,1.073,0.188,-39.429,71.716,-12.268
-0.612,1.021,0.242,-33.020,68.604,-11.414
-0.551,0.949,0.266,-24.841,62.866,-10.071
-0.513,0.905,0.265,-15.564,55.908,-10.681
-0.488,0.845,0.261,-6.287,48.950,-12.756
-0.486,0.777,0.244,0.488,42.847,-16.418
-0.508,0.744,0.207,4.150,38.147,-21.240
-0.532,0.745,0.149,4.883,36.194,-26.672
-0.565,0.762,0.097,2.686,37.476,-31.311
-0.605,0.772,0.040,-2.258,42.480,-33.997
-0.641,0.796,-0.001,-8.728,49.866,-35.278
-0.660,0.836,-0.009,-16.174,58.899,-35.339
-0.670,0.879,0.007,-24.536,67.749,-33.875
-0.665,0.908,0.040,-31.250,74.463,-31.433
-0.645,0.927,0.079,-34.424,78.064,-29.175
-0.625,0.942,0.103,-34.668,78.552,-27.710
-0.601,0.944,0.116,-31.921,77.026,-27.405
-0.577,0.919,0.105,-27.893,73.853,-27.588
-0.577,0.896,0.062,-24.414,69.275,-28.931
-0.573,0.880,0.041,-24.170,63.599,-30.273
-0.563,0.873,0.038,-25.635,57.495,-31.311
-0.553,0.855,0.038,-27.527,51.086,-31.738
-0.535,0.837,0.021,-28.564,45.349,-32.837
-0.525,0.820,0.007,-27.344,41.382,-35.950
-0.526,0.805,-0.003,-25.330,39.001,-39.124
-0.530,0.808,-0.010,-24.292,37.354,-42.114
-0.534,0.815,-0.010,-23.560,36.804,-44.067
-0.540,0.813,0.004,-21.606,36.255,-44.739
-0.551,0.815,0.009,-19.043,34.607,-44.250
-0.555,0.832,0.009,-15.930,32.776,-43.335
-0.559,0.837,0.013,-13.123,31.555,-41.565
-0.560,0.833,0.025,-9.460,30.762,-39.734
-0.561,0.834,0.029,-5.249,30.090,-38.757
-0.573,0.832,0.023,-0.793,28.931,-38.513
-0.587,0.836,0.018,2.563,27.405,-38.513
-0.601,0.833,0.010,4.395,25.269,-38.513
-0.607,0.829,-0.005,5.676,23.193,-38.452
-0.614,0.830,-0.026,5.066,21.362,-37.964
-0.623,0.832,-0.045,2.686,20.874,-37.781
-0.625,0.833,-0.049,-1.038,21.362,-37.109
-0.623,0.830,-0.040,-4.639,22.278,-36.011
-0.620,0.821,-0.038,-7.690,22.888,-34.912
-0.621,0.811,-0.025,-9.460,23.682,-34.180
-0.625,0.797,0.000,-9.705,24.109,-33.691
-0.632,0.781,0.023,-8.301,22.949,-33.875
-0.640,0.768,0.038,-5.493,19.836,-33.691
-0.647,0.760,0.046,-1.404,15.686,-32.776
-0.656,0.752,0.041,3.235,11.353,-31.433
-0.659,0.741,0.026,7.812,7.385,-28.687
-0.651,0.728,0.009,11.353,3.967,-25.024
-0.645,0.716,-0.016,13.672,1.587,-20.203
-0.638,0.715,-0.051,14.587,0.549,-14.832
-0.630,0.722,-0.074,13.367,0.977,-8.972
-0.608,0.723,-0.079,10.437,2.563,-2.930
-0.577,0.711,-0.077,7.141,4.089,2.258
-0.549,0.719,-0.070,2.747,4.578,6.531
-0.523,0.724,-0.057,-1.343,4.211,9.155
-0.496,0.723,-0.032,-3.174,3.296,10.620
-0.473,0.721,0.002,-2.869,1.343,11.230
-0.463,0.732,0.029,-2.197,-1.404,12.085
-0.465,0.748,0.037,0.244,-4.517,13.550
-0.462,0.768,0.032,4.028,-7.812,15.991
-0.458,0.789,-0.006,7.629,-9.399,19.958
-0.450,0.815,-0.005,10.254,-8.667,25.024
-0.439,0.883,0.020,12.756,-7.080,30.090
-0.420,0.866,-0.001,16.541,-6.653,35.522
-0.400,0.891,-0.039,20.508,-7.080,38.635
-0.391,0.899,-0.057,21.851,-6.592,40.771
-0.380,0.901,-0.068,21.057,-5.798,41.870
-0.360,0.899,-0.083,18.372,-5.981,42.175
-0.355,0.917,-0.090,13.123,-7.385,41.260
-0.367,0.933,-0.077,5.676,-9.949,40.649
-0.367,0.949,-0.048,-0.305,-13.184,40.161
-0.349,0.986,-0.019,-4.456,-15.564,39.429
-0.351,1.021,0.001,-5.188,-16.235,39.001
-0.353,1.034,0.003,-3.357,-16.113,39.307
-0.339,1.031,0.012,-0.488,-15.137,40.039
-0.335,1.051,0.005,2.808,-14.465,40.588
-0.332,1.063,0.003,5.798,-14.038,41.077
-0.323,1.073,0.005,8.545,-14.526,41.626
-0.315,1.072,0.006,11.536,-15.381,41.565
-0.311,1.070,0.004,14.038,-16.907,40.466
-0.306,1.068,-0.004,15.686,-18.799,38.330
-0.303,1.058,-0.024,16.724,-20.630,35.583
-0.307,1.044,-0.046,15.625,-21.667,32.166
-0.314,1.033,-0.065,12.634,-21.851,28.442
-0.340,1.034,-0.072,8.850,-20.996,24.353
-0.402,1.057,-0.068,5.493,-19.897,19.470
-0.496,1.122,-0.057,2.563,-18.494,14.221
-0.595,1.200,-0.032,1.038,-17.334,9.338
-0.631,1.254,0.005,2.258,-17.334,6.836
-0.614,1.285,0.072,5.859,-18.616,7.568
-0.605,1.253,0.104,10.620,-22.095,10.803
-0.606,1.182,0.130,15.869,-27.710,13.245
-0.606,1.132,0.133,22.278,-33.936,11.719
-0.584,1.080,0.109,28.137,-38.940,8.240
-0.556,1.001,0.072,34.363,-41.687,5.371
-0.534,0.901,0.019,39.368,-41.687,3.601
-0.518,0.791,-0.057,40.649,-39.490,2.441
-0.516,0.679,-0.147,37.537,-34.851,1.404
-0.526,0.606,-0.209,31.006,-27.527,0.000
-0.542,0.573,-0.246,20.996,-18.250,-0.977
-0.566,0.582,-0.241,9.705,-8.728,-0.977
-0.585,0.630,-0.208,-0.305,-1.160,-0.305
-0.599,0.697,-0.163,-8.301,3.967,2.075
-0.600,0.739,-0.118,-11.719,6.042,6.226
-0.590,0.758,-0.078,-10.315,4.272,10.620
-0.579,0.771,-0.042,-6.165,-0.916,13.611
-0.576,0.780,-0.003,0.122,-8.972,14.771
-0.586,0.791,0.030,7.874,-20.264,14.282
-0.611,0.804,0.053,16.541,-33.691,12.451
-0.641,0.818,0.059,25.330,-47.729,10.193
-0.671,0.824,0.035,33.264,-60.669,7.690
-0.697,0.817,-0.004,39.673,-70.129,5.737
-0.717,0.828,-0.034,42.419,-74.951,4.517
-0.727,0.842,-0.092,41.565,-75.317,4.761
-0.739,0.815,-0.134,36.804,-71.289,6.531
-0.730,0.788,-0.063,29.907,-61.890,8.789
-0.713,0.807,-0.014,24.536,-52.673,9.766
-0.699,0.813,-0.022,22.644,-45.532,10.254
-0.692,0.799,-0.067,22.522,-38.513,11.292
-0.685,0.770,-0.103,22.034,-30.212,12.695
-0.664,0.736,-0.084,20.935,-22.400,14.160
-0.644,0.722,-0.071,19.104,-17.761,14.709
-0.631,0.731,-0.076,17.578,-16.907,15.015
-0.619,0.740,-0.088,17.029,-17.883,15.808
-0.610,0.746,-0.097,17.395,-19.897,17.761
-0.599,0.755,-0.098,18.188,-23.010,20.264
-0.594,0.762,-0.104,19.470,-26.550,23.376
-0.595,0.771,-0.072,21.484,-30.273,26.489
-0.596,0.790,-0.046,24.353,-35.156,29.358
-0.598,0.795,-0.033,28.137,-41.382,31.921
-0.597,0.794,-0.038,31.860,-47.546,33.875
-0.596,0.786,-0.038,33.569,-52.307,35.950
-0.591,0.789,-0.020,33.203,-54.871,37.292
-0.588,0.806,0.000,32.715,-55.908,37.842
-0.579,0.819,0.008,32.166,-55.725,38.513
-0.564,0.821,0.008,31.494,-54.443,39.246
-0.556,0.823,0.006,30.334,-52.124,39.917
-0.552,0.831,0.001,28.564,-48.767,40.344
-0.550,0.847,-0.007,26.733,-44.617,40.894
-0.546,0.859,-0.015,24.963,-39.612,41.382
-0.537,0.864,-0.021,23.926,-33.875,42.664
-0.526,0.866,-0.018,22.400,-28.320,43.945
-0.510,0.867,-0.009,20.508,-23.926,45.227
-0.494,0.873,-0.008,18.188,-20.691,46.204
-0.462,0.847,-0.016,15.259,-18.738,46.631
-0.481,0.925,-0.018,12.634,-16.968,45.593
-0.458,0.881,0.034,12.207,-14.099,46.753
-0.421,0.873,0.025,14.099,-13.977,46.692
-0.423,0.921,-0.008,14.709,-15.259,43.396
-0.438,0.976,-0.015,14.771,-15.320,40.955
-0.441,0.999,-0.012,15.625,-14.709,40.710
-0.429,0.979,-0.023,18.799,-14.709,41.504
-0.416,0.945,-0.032,21.912,-15.198,41.504
-0.406,0.928,-0.034,21.851,-15.991,40.039
-0.402,0.920,-0.024,20.386,-17.517,37.476
-0.400,0.914,-0.015,19.409,-19.714,34.119
-0.403,0.911,-0.010,18.494,-21.851,31.189
-0.414,0.914,-0.021,17.029,-22.827,28.748
-0.427,0.920,-0.034,14.954,-22.095,26.978
-0.437,0.923,-0.036,13.306,-19.531,25.574
-0.443,0.924,-0.023,12.390,-16.235,24.841
-0.444,0.931,-0.016,11.536,-13.184,24.048
-0.451,0.932,-0.018,12.085,-10.193,22.766
-0.454,0.936,-0.022,13.855,-7.629,20.752
-0.455,0.928,-0.018,16.296,-5.920,19.043
-0.453,0.900,-0.015,18.616,-5.798,18.127
-0.455,0.876,-0.024,20.447,-6.836,17.212
-0.463,0.867,-0.040,21.118,-7.751,15.808
-0.470,0.852,-0.063,21.179,-8.362,14.343
-0.474,0.848,-0.095,19.287,-7.446,13.550
-0.476,0.853,-0.130,14.771,-4.639,13.000
-0.475,0.860,-0.159,9.338,-0.122,12.817
-0.469,0.870,-0.165,4.639,5.920,12.695
-0.462,0.895,-0.158,-0.610,11.292,11.841
-0.454,0.914,-0.141,-6.104,14.954,11.597
-0.448,0.931,-0.112,-9.827,16.235,11.230
-0.442,0.958,-0.085,-11.536,14.832,10.010
-0.435,0.978,-0.068,-10.986,11.963,8.362
-0.432,0.968,-0.063,-7.568,8.667,5.981
-0.429,0.939,-0.052,-1.221,5.310,2.563
-0.433,0.913,-0.055,5.615,1.343,-0.793
-0.459,0.893,-0.064,11.658,-2.380,-3.540
-0.498,0.871,-0.099,15.747,-5.859,-5.127
-0.545,0.882,-0.132,16.052,-7.812,-5.371
-0.593,0.923,-0.166,13.245,-6.348,-4.883
-0.638,0.977,-0.191,9.338,-2.075,-3.479
-0.667,1.017,-0.219,4.578,4.883,-0.793
-0.672,1.047,-0.236,-2.258,13.428,2.625
-0.670,1.079,-0.223,-11.169,21.851,5.432
-0.664,1.126,-0.174,-20.020,28.442,6.348
-0.641,1.162,-0.125,-26.978,31.494,5.310
-0.611,1.176,-0.089,-30.579,31.372,2.808
-0.569,1.162,-0.047,-30.884,27.954,-0.610
-0.517,1.122,0.005,-28.015,21.790,-5.493
-0.485,1.083,0.040,-22.888,12.939,-13.000
-0.468,1.035,0.037,-15.808,2.686,-21.484
-0.462,0.986,0.011,-8.972,-6.287,-29.785
-0.475,0.939,-0.033,-3.113,-13.367,-37.292
-0.496,0.879,-0.077,0.366,-16.907,-43.396
-0.514,0.827,-0.164,0.305,-15.869,-48.401
-0.531,0.806,-0.212,-3.540,-9.583,-52.490
-0.556,0.784,-0.227,-9.827,-0.549,-55.054
-0.586,0.779,-0.237,-17.517,9.583,-56.213
-0.607,0.805,-0.216,-25.574,19.104,-55.908
-0.611,0.850,-0.163,-32.227,25.940,-54.321
-0.625,0.911,-0.150,-36.499,28.564,-52.063
-0.640,0.951,-0.151,-38.513,28.442,-49.072
-0.641,0.975,-0.120,-40.344,26.489,-45.471
-0.636,0.999,-0.103,-43.091,23.071,-42.053
-0.618,1.020,-0.081,-46.448,18.738,-38.696
-0.599,1.009,-0.062,-46.631,14.221,-36.133
-0.563,1.014,-0.064,-44.556,10.254,-35.522
-0.541,1.026,-0.065,-41.504,8.423,-37.109
-0.541,1.026,-0.075,-36.743,8.179,-39.795
-0.529,1.024,-0.086,-31.982,9.155,-43.396
-0.518,0.999,-0.090,-27.588,9.766,-47.363
-0.516,0.969,-0.113,-25.024,9.338,-51.270
-0.528,0.957,-0.129,-25.024,7.324,-54.321
-0.529,0.939,-0.139,-26.123,3.418,-56.152
-0.518,0.926,-0.134,-27.283,-0.671,-58.533
-0.525,0.922,-0.123,-27.161,-4.211,-61.951
-0.527,0.931,-0.115,-26.855,-7.568,-66.101
-0.533,0.943,-0.099,-25.208,-9.583,-70.129
-0.546,0.925,-0.090,-21.423,-9.888,-73.303
-0.553,0.913,-0.084,-17.822,-9.460,-75.073
